,success,category,start_time,trial_type,trial_index,time_elapsed,internal_node_id,warning,missed_checkup,PID,view_history,rt,responses,repeat_instructions,key_press,response,stimulus_id,painting,trial,stimulus_left,stimulus_right,explain_trial,reward_type,rating_left,rating_right,painting_left,painting_right,block,left_chosen,chosen_obj,unchosen_obj,explain_response,novel_left,reward_amount,see_reward_rt,register_reward_response,register_reward_rt,deliberation_reward_tally,stimulus_left_deliberation_ind,stimulus_right_deliberation_ind,chosen_trial,gain_left,higher_outcome_chosen,old_pair,chosen_object,condition,rt_pairs,left_object_chosen,rt_object,old_response,total_reward_tally,version,phase
0,True,full_screen,d09062021hr1749,fullscreen,0,2413,0.0-0.0,0,0,RTY50,,,,,,,,,,,,,,,,,,,,,,,,,,,,,,,,,,,,,,,,,,V1,full_screen
1,,rating_instructions,,instructions,1,4768,0.0-1.0-0.0,0,0,RTY50,"[{""page_index"":0,""viewing_time"":1625},{""page_index"":1,""viewing_time"":728}]",2.353,,,,,,,,,,,,,,,,,,,,,,,,,,,,,,,,,,,,,,,,V1,rating
2,,rating_comprehension_check,,survey-multi-choice,2,7373,0.0-1.0-1.0,0,0,RTY50,,2.6,"{""Q0"":""True"",""Q1"":""Mouse""}",0.0,,,,,,,,,,,,,,,,,,,,,,,,,,,,,,,,,,,,,,V1,rating
3,,start_phase,,html-keyboard-response,3,8573,0.0-2.0,0,0,RTY50,,1.198,,,78.0,,,,,,,,,,,,,,,,,,,,,,,,,,,,,,,,,,,,,V1,rating
4,,rating,,html-slider-response,4,9950,0.0-3.0,0,0,RTY50,,1.375,,,,50.0,33.0,Kline1.jpg,0.0,,,,,,,,,,,,,,,,,,,,,,,,,,,,,,,,,V1,rating
5,,rating,,html-slider-response,5,10401,0.0-4.0,0,0,RTY50,,0.449,,,,50.0,19.0,Picc1n.jpg,1.0,,,,,,,,,,,,,,,,,,,,,,,,,,,,,,,,,V1,rating
6,,rating,,html-slider-response,6,10757,0.0-5.0,0,0,RTY50,,0.354,,,,50.0,57.0,Lassa1.jpg,2.0,,,,,,,,,,,,,,,,,,,,,,,,,,,,,,,,,V1,rating
7,,rating,,html-slider-response,7,11035,0.0-6.0,0,0,RTY50,,0.275,,,,50.0,37.0,Deka1n.jpg,3.0,,,,,,,,,,,,,,,,,,,,,,,,,,,,,,,,,V1,rating
8,,rating,,html-slider-response,8,11225,0.0-7.0,0,0,RTY50,,0.187,,,,50.0,30.0,Kraa1n.jpg,4.0,,,,,,,,,,,,,,,,,,,,,,,,,,,,,,,,,V1,rating
9,,rating,,html-slider-response,9,11437,0.0-8.0,0,0,RTY50,,0.21,,,,50.0,45.0,Lasc1n.jpg,5.0,,,,,,,,,,,,,,,,,,,,,,,,,,,,,,,,,V1,rating
10,,rating,,html-slider-response,10,11635,0.0-9.0,0,0,RTY50,,0.196,,,,50.0,18.0,Krab1n.jpg,6.0,,,,,,,,,,,,,,,,,,,,,,,,,,,,,,,,,V1,rating
11,,rating,,html-slider-response,11,11825,0.0-10.0,0,0,RTY50,,0.188,,,,50.0,39.0,Kupb1n.jpg,7.0,,,,,,,,,,,,,,,,,,,,,,,,,,,,,,,,,V1,rating
12,,rating,,html-slider-response,12,12031,0.0-11.0,0,0,RTY50,,0.204,,,,50.0,56.0,Clib1n.jpg,8.0,,,,,,,,,,,,,,,,,,,,,,,,,,,,,,,,,V1,rating
13,,rating,,html-slider-response,13,12229,0.0-12.0,0,0,RTY50,,0.196,,,,50.0,10.0,Vinb1n.jpg,9.0,,,,,,,,,,,,,,,,,,,,,,,,,,,,,,,,,V1,rating
14,,rating,,html-slider-response,14,12411,0.0-13.0,0,0,RTY50,,0.18,,,,43.0,58.0,Klinc1.jpg,10.0,,,,,,,,,,,,,,,,,,,,,,,,,,,,,,,,,V1,rating
15,,rating,,html-slider-response,15,12577,0.0-14.0,0,0,RTY50,,0.164,,,,45.0,43.0,Clifb1.jpg,11.0,,,,,,,,,,,,,,,,,,,,,,,,,,,,,,,,,V1,rating
16,,rating,,html-slider-response,16,12894,0.0-15.0,0,0,RTY50,,0.315,,,,50.0,6.0,Gusc1n.jpg,12.0,,,,,,,,,,,,,,,,,,,,,,,,,,,,,,,,,V1,rating
17,,rating,,html-slider-response,17,13273,0.0-16.0,0,0,RTY50,,0.378,,,,66.0,4.0,Krasb1.jpg,13.0,,,,,,,,,,,,,,,,,,,,,,,,,,,,,,,,,V1,rating
18,,rating,,html-slider-response,18,13455,0.0-17.0,0,0,RTY50,,0.181,,,,50.0,53.0,Macc1n.jpg,14.0,,,,,,,,,,,,,,,,,,,,,,,,,,,,,,,,,V1,rating
19,,rating,,html-slider-response,19,13645,0.0-18.0,0,0,RTY50,,0.188,,,,50.0,16.0,Vincc1.jpg,15.0,,,,,,,,,,,,,,,,,,,,,,,,,,,,,,,,,V1,rating
20,,rating,,html-slider-response,20,13826,0.0-19.0,0,0,RTY50,,0.18,,,,50.0,61.0,Grigb1.jpg,16.0,,,,,,,,,,,,,,,,,,,,,,,,,,,,,,,,,V1,rating
21,,rating,,html-slider-response,21,14001,0.0-20.0,0,0,RTY50,,0.173,,,,50.0,40.0,Vinc1n.jpg,17.0,,,,,,,,,,,,,,,,,,,,,,,,,,,,,,,,,V1,rating
22,,rating,,html-slider-response,22,14183,0.0-21.0,0,0,RTY50,,0.18,,,,50.0,44.0,Mackb1.jpg,18.0,,,,,,,,,,,,,,,,,,,,,,,,,,,,,,,,,V1,rating
23,,rating,,html-slider-response,23,14363,0.0-22.0,0,0,RTY50,,0.179,,,,66.0,29.0,Klinb1.jpg,19.0,,,,,,,,,,,,,,,,,,,,,,,,,,,,,,,,,V1,rating
24,,rating,,html-slider-response,24,14539,0.0-23.0,0,0,RTY50,,0.174,,,,65.0,64.0,Vincb1.jpg,20.0,,,,,,,,,,,,,,,,,,,,,,,,,,,,,,,,,V1,rating
25,,rating,,html-slider-response,25,14731,0.0-24.0,0,0,RTY50,,0.191,,,,50.0,51.0,Lewic1.jpg,21.0,,,,,,,,,,,,,,,,,,,,,,,,,,,,,,,,,V1,rating
26,,rating,,html-slider-response,26,14915,0.0-25.0,0,0,RTY50,,0.182,,,,50.0,63.0,Lewia1.jpg,22.0,,,,,,,,,,,,,,,,,,,,,,,,,,,,,,,,,V1,rating
27,,rating,,html-slider-response,27,15100,0.0-26.0,0,0,RTY50,,0.184,,,,50.0,52.0,Dekoa1.jpg,23.0,,,,,,,,,,,,,,,,,,,,,,,,,,,,,,,,,V1,rating
28,,rating,,html-slider-response,28,15297,0.0-27.0,0,0,RTY50,,0.196,,,,78.0,28.0,Pice1n.jpg,24.0,,,,,,,,,,,,,,,,,,,,,,,,,,,,,,,,,V1,rating
29,,rating,,html-slider-response,29,15592,0.0-28.0,0,0,RTY50,,0.293,,,,50.0,36.0,Gustb1.jpg,25.0,,,,,,,,,,,,,,,,,,,,,,,,,,,,,,,,,V1,rating
30,,rating,,html-slider-response,30,15836,0.0-29.0,0,0,RTY50,,0.242,,,,50.0,47.0,Vina1n.jpg,26.0,,,,,,,,,,,,,,,,,,,,,,,,,,,,,,,,,V1,rating
31,,rating,,html-slider-response,31,16146,0.0-30.0,0,0,RTY50,,0.309,,,,33.0,7.0,Macb1n.jpg,27.0,,,,,,,,,,,,,,,,,,,,,,,,,,,,,,,,,V1,rating
32,,rating,,html-slider-response,32,16414,0.0-31.0,0,0,RTY50,,0.267,,,,50.0,20.0,Picb1n.jpg,28.0,,,,,,,,,,,,,,,,,,,,,,,,,,,,,,,,,V1,rating
33,,rating,,html-slider-response,33,16676,0.0-32.0,0,0,RTY50,,0.26,,,,50.0,59.0,Macka1.jpg,29.0,,,,,,,,,,,,,,,,,,,,,,,,,,,,,,,,,V1,rating
34,,rating,,html-slider-response,34,16936,0.0-33.0,0,0,RTY50,,0.26,,,,50.0,14.0,Grib1n.jpg,30.0,,,,,,,,,,,,,,,,,,,,,,,,,,,,,,,,,V1,rating
35,,rating,,html-slider-response,35,17190,0.0-34.0,0,0,RTY50,,0.252,,,,50.0,5.0,Pica1n.jpg,31.0,,,,,,,,,,,,,,,,,,,,,,,,,,,,,,,,,V1,rating
36,,rating,,html-slider-response,36,17435,0.0-35.0,0,0,RTY50,,0.244,,,,66.0,41.0,Picae1.jpg,32.0,,,,,,,,,,,,,,,,,,,,,,,,,,,,,,,,,V1,rating
37,,rating,,html-slider-response,37,17665,0.0-36.0,0,0,RTY50,,0.228,,,,50.0,2.0,Dekb1n.jpg,33.0,,,,,,,,,,,,,,,,,,,,,,,,,,,,,,,,,V1,rating
38,,rating,,html-slider-response,38,17902,0.0-37.0,0,0,RTY50,,0.235,,,,22.0,60.0,Kupc1n.jpg,34.0,,,,,,,,,,,,,,,,,,,,,,,,,,,,,,,,,V1,rating
39,,rating,,html-slider-response,39,18156,0.0-38.0,0,0,RTY50,,0.252,,,,50.0,23.0,Rohlb1.jpg,35.0,,,,,,,,,,,,,,,,,,,,,,,,,,,,,,,,,V1,rating
40,,rating,,html-slider-response,40,18401,0.0-39.0,0,0,RTY50,,0.244,,,,1.0,15.0,Lassc1.jpg,36.0,,,,,,,,,,,,,,,,,,,,,,,,,,,,,,,,,V1,rating
41,,rating,,html-slider-response,41,18633,0.0-40.0,0,0,RTY50,,0.231,,,,50.0,27.0,Gustc1.jpg,37.0,,,,,,,,,,,,,,,,,,,,,,,,,,,,,,,,,V1,rating
42,,rating,,html-slider-response,42,18886,0.0-41.0,0,0,RTY50,,0.252,,,,50.0,48.0,Maca1n.jpg,38.0,,,,,,,,,,,,,,,,,,,,,,,,,,,,,,,,,V1,rating
43,,rating,,html-slider-response,43,19143,0.0-42.0,0,0,RTY50,,0.255,,,,50.0,25.0,Dekob1.jpg,39.0,,,,,,,,,,,,,,,,,,,,,,,,,,,,,,,,,V1,rating
44,,rating,,html-slider-response,44,19382,0.0-43.0,0,0,RTY50,,0.237,,,,50.0,65.0,Roha1n.jpg,40.0,,,,,,,,,,,,,,,,,,,,,,,,,,,,,,,,,V1,rating
45,,rating,,html-slider-response,45,19649,0.0-44.0,0,0,RTY50,,0.265,,,,50.0,50.0,Klic1n.jpg,41.0,,,,,,,,,,,,,,,,,,,,,,,,,,,,,,,,,V1,rating
46,,rating,,html-slider-response,46,19912,0.0-45.0,0,0,RTY50,,0.261,,,,50.0,0.0,Monb1n.jpg,42.0,,,,,,,,,,,,,,,,,,,,,,,,,,,,,,,,,V1,rating
47,,rating,,html-slider-response,47,20172,0.0-46.0,0,0,RTY50,,0.259,,,,50.0,22.0,Klina1.jpg,43.0,,,,,,,,,,,,,,,,,,,,,,,,,,,,,,,,,V1,rating
48,,rating,,html-slider-response,48,20426,0.0-47.0,0,0,RTY50,,0.252,,,,44.0,8.0,Picd1n.jpg,44.0,,,,,,,,,,,,,,,,,,,,,,,,,,,,,,,,,V1,rating
49,,rating,,html-slider-response,49,20678,0.0-48.0,0,0,RTY50,,0.25,,,,50.0,67.0,Picab1.jpg,45.0,,,,,,,,,,,,,,,,,,,,,,,,,,,,,,,,,V1,rating
50,,rating,,html-slider-response,50,20940,0.0-49.0,0,0,RTY50,,0.26,,,,50.0,68.0,Mondb1.jpg,46.0,,,,,,,,,,,,,,,,,,,,,,,,,,,,,,,,,V1,rating
51,,rating,,html-slider-response,51,21193,0.0-50.0,0,0,RTY50,,0.252,,,,55.0,35.0,Gusa1n.jpg,47.0,,,,,,,,,,,,,,,,,,,,,,,,,,,,,,,,,V1,rating
52,,rating,,html-slider-response,52,21446,0.0-51.0,0,0,RTY50,,0.252,,,,50.0,54.0,Rohla1.jpg,48.0,,,,,,,,,,,,,,,,,,,,,,,,,,,,,,,,,V1,rating
53,,rating,,html-slider-response,53,21681,0.0-52.0,0,0,RTY50,,0.234,,,,50.0,17.0,Picaa1.jpg,49.0,,,,,,,,,,,,,,,,,,,,,,,,,,,,,,,,,V1,rating
54,,rating,,html-slider-response,54,21929,0.0-53.0,0,0,RTY50,,0.246,,,,66.0,11.0,Clifa1.jpg,50.0,,,,,,,,,,,,,,,,,,,,,,,,,,,,,,,,,V1,rating
55,,rating,,html-slider-response,55,22325,0.0-54.0,0,0,RTY50,,0.394,,,,88.0,69.0,Picad1.jpg,51.0,,,,,,,,,,,,,,,,,,,,,,,,,,,,,,,,,V1,rating
56,,rating,,html-slider-response,56,22593,0.0-55.0,0,0,RTY50,,0.266,,,,50.0,46.0,Lewb1n.jpg,52.0,,,,,,,,,,,,,,,,,,,,,,,,,,,,,,,,,V1,rating
57,,rating,,html-slider-response,57,22887,0.0-56.0,0,0,RTY50,,0.292,,,,50.0,1.0,Monda1.jpg,53.0,,,,,,,,,,,,,,,,,,,,,,,,,,,,,,,,,V1,rating
58,,rating,,html-slider-response,58,23148,0.0-57.0,0,0,RTY50,,0.259,,,,9.0,9.0,Klind1.jpg,54.0,,,,,,,,,,,,,,,,,,,,,,,,,,,,,,,,,V1,rating
59,,rating,,html-slider-response,59,23417,0.0-58.0,0,0,RTY50,,0.267,,,,50.0,3.0,Klib1n.jpg,55.0,,,,,,,,,,,,,,,,,,,,,,,,,,,,,,,,,V1,rating
60,,rating,,html-slider-response,60,23700,0.0-59.0,0,0,RTY50,,0.282,,,,50.0,38.0,Krasa1.jpg,56.0,,,,,,,,,,,,,,,,,,,,,,,,,,,,,,,,,V1,rating
61,,rating,,html-slider-response,61,23963,0.0-60.0,0,0,RTY50,,0.261,,,,50.0,66.0,Vinca1.jpg,57.0,,,,,,,,,,,,,,,,,,,,,,,,,,,,,,,,,V1,rating
62,,rating,,html-slider-response,62,24224,0.0-61.0,0,0,RTY50,,0.26,,,,2.0,26.0,Klid1n.jpg,58.0,,,,,,,,,,,,,,,,,,,,,,,,,,,,,,,,,V1,rating
63,,rating,,html-slider-response,63,24469,0.0-62.0,0,0,RTY50,,0.244,,,,50.0,34.0,Lasb1n.jpg,59.0,,,,,,,,,,,,,,,,,,,,,,,,,,,,,,,,,V1,rating
64,,deliberation_instructions,,instructions,64,58689,0.0-63.0-0.0,0,0,RTY50,"[{""page_index"":0,""viewing_time"":24690},{""page_index"":1,""viewing_time"":4642},{""page_index"":2,""viewing_time"":3395},{""page_index"":3,""viewing_time"":1489}]",34.216,,,,,,,,,,,,,,,,,,,,,,,,,,,,,,,,,,,,,,,,V1,deliberation
65,,deliberation_comprehension_check,,survey-multi-choice,65,71032,0.0-63.0-1.0,0,0,RTY50,,12.341,"{""Q0"":""True"",""Q1"":""Consider carefully and take your time (up to 10 seconds)"",""Q2"":""True"",""Q3"":""D""}",0.0,,,,,,,,,,,,,,,,,,,,,,,,,,,,,,,,,,,,,,V1,deliberation
66,,start_phase,,html-keyboard-response,66,72266,0.0-64.0,0,0,RTY50,,1.232,,,78.0,,,,,,,,,,,,,,,,,,,,,,,,,,,,,,,,,,,,,V1,deliberation
67,,fixation,,html-keyboard-response,67,73271,0.0-65.0-0.0,0,0,RTY50,,,,,,,,,,,,,,,,,,,,,,,,,,,,,,,,,,,,,,,,,,V1,deliberation
68,,deliberation,,html-keyboard-response,68,77296,0.0-65.0-1.0,0,0,RTY50,,4.022,,,68.0,,,,0.0,20.0,14.0,1.0,-1.0,50.0,50.0,Picb1n.jpg,Grib1n.jpg,1.0,1.0,20.0,14.0,,,,,,,,,,,,,,,,,,,,,V1,deliberation
69,,choice_confirmation,,html-keyboard-response,69,77798,0.0-65.0-2.0-0.0,0,0,RTY50,,,,,,,,,0.0,20.0,14.0,,,,,,,,,,,,,,,,,,,,,,,,,,,,,,,V1,deliberation
70,,explain_trial,,survey-text,70,91080,0.0-65.0-5.0-0.0,0,0,RTY50,,13.28,"{""Q0"":""i didn't like the right one""}",,,,,,0.0,20.0,14.0,,,,,,,,,,,"{""Q0"":""i didn't like the right one""}",,,,,,,,,,,,,,,,,,,,V1,deliberation
71,,fixation,,html-keyboard-response,71,92086,0.0-66.0-0.0,0,0,RTY50,,,,,,,,,,,,,,,,,,,,,,,,,,,,,,,,,,,,,,,,,,V1,deliberation
72,,deliberation,,html-keyboard-response,72,94083,0.0-66.0-1.0,0,0,RTY50,,1.994,,,75.0,,,,1.0,63.0,60.0,1.0,1.0,50.0,50.0,Lewia1.jpg,Kupc1n.jpg,1.0,0.0,60.0,63.0,,,,,,,,,,,,,,,,,,,,,V1,deliberation
73,,choice_confirmation,,html-keyboard-response,73,94588,0.0-66.0-2.0-0.0,0,0,RTY50,,,,,,,,,1.0,63.0,60.0,,,,,,,,,,,,,,,,,,,,,,,,,,,,,,,V1,deliberation
74,,explain_trial,,survey-text,74,105238,0.0-66.0-5.0-0.0,0,0,RTY50,,10.647,"{""Q0"":""both were pretty, but i liked the colors of the right one""}",,,,,,1.0,63.0,60.0,,,,,,,,,,,"{""Q0"":""both were pretty, but i liked the colors of the right one""}",,,,,,,,,,,,,,,,,,,,V1,deliberation
75,,fixation,,html-keyboard-response,75,106245,0.0-67.0-0.0,0,0,RTY50,,,,,,,,,,,,,,,,,,,,,,,,,,,,,,,,,,,,,,,,,,V1,deliberation
76,,deliberation,,html-keyboard-response,76,109830,0.0-67.0-1.0,0,0,RTY50,,3.582,,,75.0,,,,2.0,50.0,16.0,1.0,-1.0,50.0,50.0,Klic1n.jpg,Vincc1.jpg,1.0,0.0,16.0,50.0,,,,,,,,,,,,,,,,,,,,,V1,deliberation
77,,choice_confirmation,,html-keyboard-response,77,110335,0.0-67.0-2.0-0.0,0,0,RTY50,,,,,,,,,2.0,50.0,16.0,,,,,,,,,,,,,,,,,,,,,,,,,,,,,,,V1,deliberation
78,,explain_trial,,survey-text,78,116300,0.0-67.0-5.0-0.0,0,0,RTY50,,5.963,"{""Q0"":""i liked the trees""}",,,,,,2.0,50.0,16.0,,,,,,,,,,,"{""Q0"":""i liked the trees""}",,,,,,,,,,,,,,,,,,,,V1,deliberation
79,,fixation,,html-keyboard-response,79,117306,0.0-68.0-0.0,0,0,RTY50,,,,,,,,,,,,,,,,,,,,,,,,,,,,,,,,,,,,,,,,,,V1,deliberation
80,,deliberation,,html-keyboard-response,80,121556,0.0-68.0-1.0,0,0,RTY50,,4.248,,,68.0,,,,3.0,64.0,0.0,1.0,-1.0,50.0,50.0,Vincb1.jpg,Monb1n.jpg,1.0,1.0,64.0,0.0,,,,,,,,,,,,,,,,,,,,,V1,deliberation
81,,choice_confirmation,,html-keyboard-response,81,122059,0.0-68.0-2.0-0.0,0,0,RTY50,,,,,,,,,3.0,64.0,0.0,,,,,,,,,,,,,,,,,,,,,,,,,,,,,,,V1,deliberation
82,,explain_trial,,survey-text,82,128483,0.0-68.0-5.0-0.0,0,0,RTY50,,6.422,"{""Q0"":""the right one was creepy""}",,,,,,3.0,64.0,0.0,,,,,,,,,,,"{""Q0"":""the right one was creepy""}",,,,,,,,,,,,,,,,,,,,V1,deliberation
83,,fixation,,html-keyboard-response,83,129489,0.0-69.0-0.0,0,0,RTY50,,,,,,,,,,,,,,,,,,,,,,,,,,,,,,,,,,,,,,,,,,V1,deliberation
84,,deliberation,,html-keyboard-response,84,132329,0.0-69.0-1.0,0,0,RTY50,,2.836,,,68.0,,,,4.0,59.0,8.0,1.0,-1.0,50.0,50.0,Macka1.jpg,Picd1n.jpg,1.0,1.0,59.0,8.0,,,,,,,,,,,,,,,,,,,,,V1,deliberation
85,,choice_confirmation,,html-keyboard-response,85,132833,0.0-69.0-2.0-0.0,0,0,RTY50,,,,,,,,,4.0,59.0,8.0,,,,,,,,,,,,,,,,,,,,,,,,,,,,,,,V1,deliberation
86,,explain_trial,,survey-text,86,142887,0.0-69.0-5.0-0.0,0,0,RTY50,,10.051,"{""Q0"":""the look on the figure's eyes was interesting""}",,,,,,4.0,59.0,8.0,,,,,,,,,,,"{""Q0"":""the look on the figure's eyes was interesting""}",,,,,,,,,,,,,,,,,,,,V1,deliberation
87,,fixation,,html-keyboard-response,87,143892,0.0-70.0-0.0,0,0,RTY50,,,,,,,,,,,,,,,,,,,,,,,,,,,,,,,,,,,,,,,,,,V1,deliberation
88,,deliberation,,html-keyboard-response,88,147619,0.0-70.0-1.0,0,0,RTY50,,3.724,,,68.0,,,,5.0,48.0,22.0,1.0,-1.0,50.0,50.0,Maca1n.jpg,Klina1.jpg,1.0,1.0,48.0,22.0,,,,,,,,,,,,,,,,,,,,,V1,deliberation
89,,choice_confirmation,,html-keyboard-response,89,148122,0.0-70.0-2.0-0.0,0,0,RTY50,,,,,,,,,5.0,48.0,22.0,,,,,,,,,,,,,,,,,,,,,,,,,,,,,,,V1,deliberation
90,,explain_trial,,survey-text,90,151556,0.0-70.0-5.0-0.0,0,0,RTY50,,3.432,"{""Q0"":""better colors""}",,,,,,5.0,48.0,22.0,,,,,,,,,,,"{""Q0"":""better colors""}",,,,,,,,,,,,,,,,,,,,V1,deliberation
91,,fixation,,html-keyboard-response,91,152561,0.0-71.0-0.0,0,0,RTY50,,,,,,,,,,,,,,,,,,,,,,,,,,,,,,,,,,,,,,,,,,V1,deliberation
92,,deliberation,,html-keyboard-response,92,154521,0.0-71.0-1.0,0,0,RTY50,,1.957,,,75.0,,,,6.0,2.0,51.0,1.0,1.0,50.0,50.0,Dekb1n.jpg,Lewic1.jpg,1.0,0.0,51.0,2.0,,,,,,,,,,,,,,,,,,,,,V1,deliberation
93,,choice_confirmation,,html-keyboard-response,93,155023,0.0-71.0-2.0-0.0,0,0,RTY50,,,,,,,,,6.0,2.0,51.0,,,,,,,,,,,,,,,,,,,,,,,,,,,,,,,V1,deliberation
94,,explain_trial,,survey-text,94,161650,0.0-71.0-5.0-0.0,0,0,RTY50,,6.625,"{""Q0"":""i liked the position""}",,,,,,6.0,2.0,51.0,,,,,,,,,,,"{""Q0"":""i liked the position""}",,,,,,,,,,,,,,,,,,,,V1,deliberation
95,,fixation,,html-keyboard-response,95,162657,0.0-72.0-0.0,0,0,RTY50,,,,,,,,,,,,,,,,,,,,,,,,,,,,,,,,,,,,,,,,,,V1,deliberation
96,,deliberation,,html-keyboard-response,96,164367,0.0-72.0-1.0,0,0,RTY50,,1.708,,,75.0,,,,7.0,29.0,41.0,1.0,-1.0,50.0,50.0,Klinb1.jpg,Picae1.jpg,1.0,0.0,41.0,29.0,,,,,,,,,,,,,,,,,,,,,V1,deliberation
97,,choice_confirmation,,html-keyboard-response,97,164871,0.0-72.0-2.0-0.0,0,0,RTY50,,,,,,,,,7.0,29.0,41.0,,,,,,,,,,,,,,,,,,,,,,,,,,,,,,,V1,deliberation
98,,explain_trial,,survey-text,98,168991,0.0-72.0-5.0-0.0,0,0,RTY50,,4.117,"{""Q0"":""nice view\n""}",,,,,,7.0,29.0,41.0,,,,,,,,,,,"{""Q0"":""nice view\n""}",,,,,,,,,,,,,,,,,,,,V1,deliberation
99,,fixation,,html-keyboard-response,99,169996,0.0-73.0-0.0,0,0,RTY50,,,,,,,,,,,,,,,,,,,,,,,,,,,,,,,,,,,,,,,,,,V1,deliberation
100,,deliberation,,html-keyboard-response,100,172517,0.0-73.0-1.0,0,0,RTY50,,2.518,,,68.0,,,,8.0,61.0,28.0,1.0,1.0,50.0,50.0,Grigb1.jpg,Pice1n.jpg,1.0,1.0,61.0,28.0,,,,,,,,,,,,,,,,,,,,,V1,deliberation
101,,choice_confirmation,,html-keyboard-response,101,173020,0.0-73.0-2.0-0.0,0,0,RTY50,,,,,,,,,8.0,61.0,28.0,,,,,,,,,,,,,,,,,,,,,,,,,,,,,,,V1,deliberation
102,,explain_trial,,survey-text,102,176753,0.0-73.0-5.0-0.0,0,0,RTY50,,3.73,"{""Q0"":""nice colors""}",,,,,,8.0,61.0,28.0,,,,,,,,,,,"{""Q0"":""nice colors""}",,,,,,,,,,,,,,,,,,,,V1,deliberation
103,,fixation,,html-keyboard-response,103,177758,0.0-74.0-0.0,0,0,RTY50,,,,,,,,,,,,,,,,,,,,,,,,,,,,,,,,,,,,,,,,,,V1,deliberation
104,,deliberation,,html-keyboard-response,104,180193,0.0-74.0-1.0,0,0,RTY50,,2.431,,,75.0,,,,9.0,25.0,52.0,1.0,1.0,50.0,50.0,Dekob1.jpg,Dekoa1.jpg,1.0,0.0,52.0,25.0,,,,,,,,,,,,,,,,,,,,,V1,deliberation
105,,choice_confirmation,,html-keyboard-response,105,180697,0.0-74.0-2.0-0.0,0,0,RTY50,,,,,,,,,9.0,25.0,52.0,,,,,,,,,,,,,,,,,,,,,,,,,,,,,,,V1,deliberation
106,,explain_trial,,survey-text,106,182779,0.0-74.0-5.0-0.0,0,0,RTY50,,2.079,"{""Q0"":""""}",,,,,,9.0,25.0,52.0,,,,,,,,,,,"{""Q0"":""""}",,,,,,,,,,,,,,,,,,,,V1,deliberation
107,,fixation,,html-keyboard-response,107,183785,0.0-75.0-0.0,0,0,RTY50,,,,,,,,,,,,,,,,,,,,,,,,,,,,,,,,,,,,,,,,,,V1,deliberation
108,,deliberation,,html-keyboard-response,108,185284,0.0-75.0-1.0,0,0,RTY50,,1.496,,,75.0,,,,10.0,7.0,23.0,1.0,1.0,50.0,50.0,Macb1n.jpg,Rohlb1.jpg,1.0,0.0,23.0,7.0,,,,,,,,,,,,,,,,,,,,,V1,deliberation
109,,choice_confirmation,,html-keyboard-response,109,185788,0.0-75.0-2.0-0.0,0,0,RTY50,,,,,,,,,10.0,7.0,23.0,,,,,,,,,,,,,,,,,,,,,,,,,,,,,,,V1,deliberation
110,,explain_trial,,survey-text,110,186970,0.0-75.0-5.0-0.0,0,0,RTY50,,1.179,"{""Q0"":""""}",,,,,,10.0,7.0,23.0,,,,,,,,,,,"{""Q0"":""""}",,,,,,,,,,,,,,,,,,,,V1,deliberation
111,,fixation,,html-keyboard-response,111,187976,0.0-76.0-0.0,0,0,RTY50,,,,,,,,,,,,,,,,,,,,,,,,,,,,,,,,,,,,,,,,,,V1,deliberation
112,,deliberation,,html-keyboard-response,112,189746,0.0-76.0-1.0,0,0,RTY50,,1.768,,,75.0,,,,11.0,47.0,5.0,1.0,1.0,50.0,50.0,Vina1n.jpg,Pica1n.jpg,1.0,0.0,5.0,47.0,,,,,,,,,,,,,,,,,,,,,V1,deliberation
113,,choice_confirmation,,html-keyboard-response,113,190257,0.0-76.0-2.0-0.0,0,0,RTY50,,,,,,,,,11.0,47.0,5.0,,,,,,,,,,,,,,,,,,,,,,,,,,,,,,,V1,deliberation
114,,explain_trial,,survey-text,114,192319,0.0-76.0-5.0-0.0,0,0,RTY50,,2.059,"{""Q0"":""""}",,,,,,11.0,47.0,5.0,,,,,,,,,,,"{""Q0"":""""}",,,,,,,,,,,,,,,,,,,,V1,deliberation
115,,interference_instructions,,instructions,115,210809,0.0-77.0-0.0,0,0,RTY50,"[{""page_index"":0,""viewing_time"":17183},{""page_index"":1,""viewing_time"":1305}]",18.488,,,,,,,,,,,,,,,,,,,,,,,,,,,,,,,,,,,,,,,,V1,interference
116,,interference_comprehension_check,,survey-multi-choice,116,233621,0.0-77.0-1.0,0,0,RTY50,,22.809,"{""Q0"":""True"",""Q1"":""Consider carefully and take your time (up to 10 seconds)"",""Q2"":""True"",""Q3"":""K""}",0.0,,,,,,,,,,,,,,,,,,,,,,,,,,,,,,,,,,,,,,V1,interference
117,,start_phase,,html-keyboard-response,117,235151,0.0-78.0,0,0,RTY50,,1.528,,,78.0,,,,,,,,,,,,,,,,,,,,,,,,,,,,,,,,,,,,,V1,interference
118,,fixation,,html-keyboard-response,118,236155,0.0-79.0-0.0,0,0,RTY50,,,,,,,,,,,,,,,,,,,,,,,,,,,,,,,,,,,,,,,,,,V1,interference
119,,interference,,html-keyboard-response,119,238754,0.0-79.0-1.0,0,0,RTY50,,2.596,,,75.0,,,,0.0,61.0,40.0,1.0,,50.0,50.0,Grigb1.jpg,Vinc1n.jpg,1.0,0.0,40.0,61.0,,0.0,,,,,,,,,,,,,,,,,,,V1,interference
120,,choice_confirmation,,html-keyboard-response,120,239257,0.0-79.0-2.0-0.0,0,0,RTY50,,,,,,,,,0.0,61.0,40.0,,,,,,,,,,,,,,,,,,,,,,,,,,,,,,,V1,interference
121,,explain_trial,,survey-text,121,241587,0.0-79.0-5.0-0.0,0,0,RTY50,,2.328,"{""Q0"":""""}",,,,,,0.0,61.0,40.0,,,,,,,,,,,"{""Q0"":""""}",,,,,,,,,,,,,,,,,,,,V1,interference
122,,fixation,,html-keyboard-response,122,242592,0.0-80.0-0.0,0,0,RTY50,,,,,,,,,,,,,,,,,,,,,,,,,,,,,,,,,,,,,,,,,,V1,interference
123,,interference,,html-keyboard-response,123,247031,0.0-80.0-1.0,0,0,RTY50,,4.436,,,68.0,,,,1.0,51.0,15.0,1.0,,50.0,50.0,Lewic1.jpg,Lassc1.jpg,1.0,1.0,51.0,15.0,,0.0,,,,,,,,,,,,,,,,,,,V1,interference
124,,choice_confirmation,,html-keyboard-response,124,247533,0.0-80.0-2.0-0.0,0,0,RTY50,,,,,,,,,1.0,51.0,15.0,,,,,,,,,,,,,,,,,,,,,,,,,,,,,,,V1,interference
125,,explain_trial,,survey-text,125,249401,0.0-80.0-5.0-0.0,0,0,RTY50,,1.865,"{""Q0"":""""}",,,,,,1.0,51.0,15.0,,,,,,,,,,,"{""Q0"":""""}",,,,,,,,,,,,,,,,,,,,V1,interference
126,,fixation,,html-keyboard-response,126,250407,0.0-81.0-0.0,0,0,RTY50,,,,,,,,,,,,,,,,,,,,,,,,,,,,,,,,,,,,,,,,,,V1,interference
127,,interference,,html-keyboard-response,127,254419,0.0-81.0-1.0,0,0,RTY50,,4.01,,,75.0,,,,2.0,59.0,27.0,1.0,,50.0,50.0,Macka1.jpg,Gustc1.jpg,1.0,0.0,27.0,59.0,,0.0,,,,,,,,,,,,,,,,,,,V1,interference
128,,choice_confirmation,,html-keyboard-response,128,254924,0.0-81.0-2.0-0.0,0,0,RTY50,,,,,,,,,2.0,59.0,27.0,,,,,,,,,,,,,,,,,,,,,,,,,,,,,,,V1,interference
129,,explain_trial,,survey-text,129,256316,0.0-81.0-5.0-0.0,0,0,RTY50,,1.389,"{""Q0"":""""}",,,,,,2.0,59.0,27.0,,,,,,,,,,,"{""Q0"":""""}",,,,,,,,,,,,,,,,,,,,V1,interference
130,,fixation,,html-keyboard-response,130,257322,0.0-82.0-0.0,0,0,RTY50,,,,,,,,,,,,,,,,,,,,,,,,,,,,,,,,,,,,,,,,,,V1,interference
131,,interference,,html-keyboard-response,131,259073,0.0-82.0-1.0,0,0,RTY50,,1.749,,,75.0,,,,3.0,36.0,16.0,1.0,,50.0,50.0,Gustb1.jpg,Vincc1.jpg,1.0,0.0,16.0,36.0,,1.0,,,,,,,,,,,,,,,,,,,V1,interference
132,,choice_confirmation,,html-keyboard-response,132,259576,0.0-82.0-2.0-0.0,0,0,RTY50,,,,,,,,,3.0,36.0,16.0,,,,,,,,,,,,,,,,,,,,,,,,,,,,,,,V1,interference
133,,explain_trial,,survey-text,133,260514,0.0-82.0-5.0-0.0,0,0,RTY50,,0.935,"{""Q0"":""""}",,,,,,3.0,36.0,16.0,,,,,,,,,,,"{""Q0"":""""}",,,,,,,,,,,,,,,,,,,,V1,interference
134,,fixation,,html-keyboard-response,134,261521,0.0-83.0-0.0,0,0,RTY50,,,,,,,,,,,,,,,,,,,,,,,,,,,,,,,,,,,,,,,,,,V1,interference
135,,interference,,html-keyboard-response,135,262925,0.0-83.0-1.0,0,0,RTY50,,1.402,,,68.0,,,,4.0,44.0,20.0,1.0,,50.0,50.0,Mackb1.jpg,Picb1n.jpg,1.0,1.0,44.0,20.0,,1.0,,,,,,,,,,,,,,,,,,,V1,interference
136,,choice_confirmation,,html-keyboard-response,136,263431,0.0-83.0-2.0-0.0,0,0,RTY50,,,,,,,,,4.0,44.0,20.0,,,,,,,,,,,,,,,,,,,,,,,,,,,,,,,V1,interference
137,,explain_trial,,survey-text,137,264517,0.0-83.0-5.0-0.0,0,0,RTY50,,1.084,"{""Q0"":""""}",,,,,,4.0,44.0,20.0,,,,,,,,,,,"{""Q0"":""""}",,,,,,,,,,,,,,,,,,,,V1,interference
138,,fixation,,html-keyboard-response,138,265523,0.0-84.0-0.0,0,0,RTY50,,,,,,,,,,,,,,,,,,,,,,,,,,,,,,,,,,,,,,,,,,V1,interference
139,,interference,,html-keyboard-response,139,267500,0.0-84.0-1.0,0,0,RTY50,,1.974,,,75.0,,,,5.0,65.0,52.0,1.0,,50.0,50.0,Roha1n.jpg,Dekoa1.jpg,1.0,0.0,52.0,65.0,,1.0,,,,,,,,,,,,,,,,,,,V1,interference
140,,choice_confirmation,,html-keyboard-response,140,268003,0.0-84.0-2.0-0.0,0,0,RTY50,,,,,,,,,5.0,65.0,52.0,,,,,,,,,,,,,,,,,,,,,,,,,,,,,,,V1,interference
141,,explain_trial,,survey-text,141,268781,0.0-84.0-5.0-0.0,0,0,RTY50,,0.777,"{""Q0"":""""}",,,,,,5.0,65.0,52.0,,,,,,,,,,,"{""Q0"":""""}",,,,,,,,,,,,,,,,,,,,V1,interference
142,,reward_learning_instructions,,instructions,142,286309,0.0-85.0-0.0,0,0,RTY50,"[{""page_index"":0,""viewing_time"":12692},{""page_index"":1,""viewing_time"":3546},{""page_index"":2,""viewing_time"":1289}]",17.527,,,,,,,,,,,,,,,,,,,,,,,,,,,,,,,,,,,,,,,,V1,reward_learning
143,,reward_comprehension_check,,survey-multi-choice,143,330143,0.0-85.0-1.0,0,0,RTY50,,43.831,"{""Q0"":""True"",""Q1"":""True"",""Q2"":""Press the space bar to see its outcome"",""Q3"":""Press the relevant key while the outcome is presented""}",0.0,,,,,,,,,,,,,,,,,,,,,,,,,,,,,,,,,,,,,,V1,reward_learning
144,,start_phase,,html-keyboard-response,144,331176,0.0-86.0,0,0,RTY50,,1.03,,,78.0,,,,,,,,,,,,,,,,,,,,,,,,,,,,,,,,,,,,,V1,reward_learning
145,,fixation,,html-keyboard-response,145,332180,0.0-87.0,0,0,RTY50,,,,,,,,,,,,,,,,,,,,,,,,,,,,,,,,,,,,,,,,,,V1,reward_learning
146,,see_reward,,html-keyboard-response,146,333762,0.0-88.0,0,0,RTY50,,1.581,,,32.0,,16.0,,0.0,,,,-1.0,,,,,1.0,,,,,,0.0,1581.0,,,,,,,,,,,,,,,,,V1,reward_learning
147,,reward_outcome,,html-keyboard-response,147,335768,0.0-89.0,0,0,RTY50,,0.76,,,40.0,,16.0,,0.0,,,,,,,,,,,,,,,,,-1.0,760.0,,,,,,,,,,,,,,,V1,reward_learning
148,,fixation,,html-keyboard-response,148,336774,0.0-92.0,0,0,RTY50,,,,,,,,,,,,,,,,,,,,,,,,,,,,,,,,,,,,,,,,,,V1,reward_learning
149,,see_reward,,html-keyboard-response,149,337890,0.0-93.0,0,0,RTY50,,1.114,,,32.0,,41.0,,1.0,,,,-1.0,,,,,1.0,,,,,,0.0,1114.0,,,,,,,,,,,,,,,,,V1,reward_learning
150,,reward_outcome,,html-keyboard-response,150,339896,0.0-94.0,0,0,RTY50,,0.628,,,40.0,,41.0,,1.0,,,,,,,,,,,,,,,,,-1.0,628.0,,,,,,,,,,,,,,,V1,reward_learning
151,,fixation,,html-keyboard-response,151,340902,0.0-97.0,0,0,RTY50,,,,,,,,,,,,,,,,,,,,,,,,,,,,,,,,,,,,,,,,,,V1,reward_learning
152,,see_reward,,html-keyboard-response,152,341255,0.0-98.0,0,0,RTY50,,0.35,,,32.0,,61.0,,2.0,,,,1.0,,,,,1.0,,,,,,158.0,350.0,,,,,,,,,,,,,,,,,V1,reward_learning
153,,reward_outcome,,html-keyboard-response,153,343262,0.0-99.0,0,0,RTY50,,0.726,,,38.0,,61.0,,2.0,,,,,,,,,,,,,,,,,1.0,726.0,,,,,,,,,,,,,,,V1,reward_learning
154,,fixation,,html-keyboard-response,154,344268,0.0-102.0,0,0,RTY50,,,,,,,,,,,,,,,,,,,,,,,,,,,,,,,,,,,,,,,,,,V1,reward_learning
155,,see_reward,,html-keyboard-response,155,344943,0.0-103.0,0,0,RTY50,,0.673,,,32.0,,23.0,,3.0,,,,1.0,,,,,1.0,,,,,,146.0,673.0,,,,,,,,,,,,,,,,,V1,reward_learning
156,,reward_outcome,,html-keyboard-response,156,346947,0.0-104.0,0,0,RTY50,,0.976,,,38.0,,23.0,,3.0,,,,,,,,,,,,,,,,,1.0,976.0,,,,,,,,,,,,,,,V1,reward_learning
157,,fixation,,html-keyboard-response,157,347953,0.0-107.0,0,0,RTY50,,,,,,,,,,,,,,,,,,,,,,,,,,,,,,,,,,,,,,,,,,V1,reward_learning
158,,see_reward,,html-keyboard-response,158,348585,0.0-108.0,0,0,RTY50,,0.63,,,32.0,,51.0,,4.0,,,,1.0,,,,,1.0,,,,,,156.0,630.0,,,,,,,,,,,,,,,,,V1,reward_learning
159,,reward_outcome,,html-keyboard-response,159,350590,0.0-109.0,0,0,RTY50,,0.633,,,38.0,,51.0,,4.0,,,,,,,,,,,,,,,,,1.0,633.0,,,,,,,,,,,,,,,V1,reward_learning
160,,fixation,,html-keyboard-response,160,351596,0.0-112.0,0,0,RTY50,,,,,,,,,,,,,,,,,,,,,,,,,,,,,,,,,,,,,,,,,,V1,reward_learning
161,,see_reward,,html-keyboard-response,161,351991,0.0-113.0,0,0,RTY50,,0.393,,,32.0,,52.0,,5.0,,,,1.0,,,,,1.0,,,,,,159.0,393.0,,,,,,,,,,,,,,,,,V1,reward_learning
162,,reward_outcome,,html-keyboard-response,162,353996,0.0-114.0,0,0,RTY50,,0.465,,,38.0,,52.0,,5.0,,,,,,,,,,,,,,,,,1.0,465.0,,,,,,,,,,,,,,,V1,reward_learning
163,,fixation,,html-keyboard-response,163,355001,0.0-117.0,0,0,RTY50,,,,,,,,,,,,,,,,,,,,,,,,,,,,,,,,,,,,,,,,,,V1,reward_learning
164,,see_reward,,html-keyboard-response,164,355537,0.0-118.0,0,0,RTY50,,0.534,,,32.0,,48.0,,6.0,,,,-1.0,,,,,1.0,,,,,,0.0,534.0,,,,,,,,,,,,,,,,,V1,reward_learning
165,,reward_outcome,,html-keyboard-response,165,357542,0.0-119.0,0,0,RTY50,,0.69,,,40.0,,48.0,,6.0,,,,,,,,,,,,,,,,,-1.0,690.0,,,,,,,,,,,,,,,V1,reward_learning
166,,fixation,,html-keyboard-response,166,358548,0.0-122.0,0,0,RTY50,,,,,,,,,,,,,,,,,,,,,,,,,,,,,,,,,,,,,,,,,,V1,reward_learning
167,,see_reward,,html-keyboard-response,167,358890,0.0-123.0,0,0,RTY50,,0.34,,,32.0,,48.0,,7.0,,,,-1.0,,,,,1.0,,,,,,0.0,340.0,,,,,,,,,,,,,,,,,V1,reward_learning
168,,reward_outcome,,html-keyboard-response,168,360894,0.0-124.0,0,0,RTY50,,0.622,,,40.0,,48.0,,7.0,,,,,,,,,,,,,,,,,-1.0,622.0,,,,,,,,,,,,,,,V1,reward_learning
169,,fixation,,html-keyboard-response,169,361900,0.0-127.0,0,0,RTY50,,,,,,,,,,,,,,,,,,,,,,,,,,,,,,,,,,,,,,,,,,V1,reward_learning
170,,see_reward,,html-keyboard-response,170,362266,0.0-128.0,0,0,RTY50,,0.364,,,32.0,,16.0,,8.0,,,,-1.0,,,,,1.0,,,,,,0.0,364.0,,,,,,,,,,,,,,,,,V1,reward_learning
171,,reward_outcome,,html-keyboard-response,171,364270,0.0-129.0,0,0,RTY50,,0.695,,,40.0,,16.0,,8.0,,,,,,,,,,,,,,,,,-1.0,695.0,,,,,,,,,,,,,,,V1,reward_learning
172,,fixation,,html-keyboard-response,172,365275,0.0-132.0,0,0,RTY50,,,,,,,,,,,,,,,,,,,,,,,,,,,,,,,,,,,,,,,,,,V1,reward_learning
173,,see_reward,,html-keyboard-response,173,365571,0.0-133.0,0,0,RTY50,,0.294,,,32.0,,41.0,,9.0,,,,-1.0,,,,,1.0,,,,,,0.0,294.0,,,,,,,,,,,,,,,,,V1,reward_learning
174,,reward_outcome,,html-keyboard-response,174,367577,0.0-134.0,0,0,RTY50,,0.495,,,40.0,,41.0,,9.0,,,,,,,,,,,,,,,,,-1.0,495.0,,,,,,,,,,,,,,,V1,reward_learning
175,,fixation,,html-keyboard-response,175,368583,0.0-137.0,0,0,RTY50,,,,,,,,,,,,,,,,,,,,,,,,,,,,,,,,,,,,,,,,,,V1,reward_learning
176,,see_reward,,html-keyboard-response,176,368939,0.0-138.0,0,0,RTY50,,0.354,,,32.0,,23.0,,10.0,,,,1.0,,,,,1.0,,,,,,146.0,354.0,,,,,,,,,,,,,,,,,V1,reward_learning
177,,reward_outcome,,html-keyboard-response,177,370945,0.0-139.0,0,0,RTY50,,0.566,,,38.0,,23.0,,10.0,,,,,,,,,,,,,,,,,1.0,566.0,,,,,,,,,,,,,,,V1,reward_learning
178,,fixation,,html-keyboard-response,178,371950,0.0-142.0,0,0,RTY50,,,,,,,,,,,,,,,,,,,,,,,,,,,,,,,,,,,,,,,,,,V1,reward_learning
179,,see_reward,,html-keyboard-response,179,372294,0.0-143.0,0,0,RTY50,,0.342,,,32.0,,5.0,,11.0,,,,1.0,,,,,1.0,,,,,,154.0,342.0,,,,,,,,,,,,,,,,,V1,reward_learning
180,,reward_outcome,,html-keyboard-response,180,374299,0.0-144.0,0,0,RTY50,,0.642,,,38.0,,5.0,,11.0,,,,,,,,,,,,,,,,,1.0,642.0,,,,,,,,,,,,,,,V1,reward_learning
181,,fixation,,html-keyboard-response,181,375305,0.0-147.0,0,0,RTY50,,,,,,,,,,,,,,,,,,,,,,,,,,,,,,,,,,,,,,,,,,V1,reward_learning
182,,see_reward,,html-keyboard-response,182,375710,0.0-148.0,0,0,RTY50,,0.403,,,32.0,,52.0,,12.0,,,,1.0,,,,,1.0,,,,,,159.0,403.0,,,,,,,,,,,,,,,,,V1,reward_learning
183,,reward_outcome,,html-keyboard-response,183,377716,0.0-149.0,0,0,RTY50,,0.679,,,38.0,,52.0,,12.0,,,,,,,,,,,,,,,,,1.0,679.0,,,,,,,,,,,,,,,V1,reward_learning
184,,fixation,,html-keyboard-response,184,378721,0.0-152.0,0,0,RTY50,,,,,,,,,,,,,,,,,,,,,,,,,,,,,,,,,,,,,,,,,,V1,reward_learning
185,,see_reward,,html-keyboard-response,185,378919,0.0-153.0,0,0,RTY50,,0.196,,,32.0,,64.0,,13.0,,,,-1.0,,,,,1.0,,,,,,0.0,196.0,,,,,,,,,,,,,,,,,V1,reward_learning
186,,reward_outcome,,html-keyboard-response,186,380926,0.0-154.0,0,0,RTY50,,0.55,,,40.0,,64.0,,13.0,,,,,,,,,,,,,,,,,-1.0,550.0,,,,,,,,,,,,,,,V1,reward_learning
187,,fixation,,html-keyboard-response,187,381932,0.0-157.0,0,0,RTY50,,,,,,,,,,,,,,,,,,,,,,,,,,,,,,,,,,,,,,,,,,V1,reward_learning
188,,see_reward,,html-keyboard-response,188,382203,0.0-158.0,0,0,RTY50,,0.269,,,32.0,,61.0,,14.0,,,,1.0,,,,,1.0,,,,,,158.0,269.0,,,,,,,,,,,,,,,,,V1,reward_learning
189,,reward_outcome,,html-keyboard-response,189,384209,0.0-159.0,0,0,RTY50,,0.653,,,38.0,,61.0,,14.0,,,,,,,,,,,,,,,,,1.0,653.0,,,,,,,,,,,,,,,V1,reward_learning
190,,fixation,,html-keyboard-response,190,385214,0.0-162.0,0,0,RTY50,,,,,,,,,,,,,,,,,,,,,,,,,,,,,,,,,,,,,,,,,,V1,reward_learning
191,,see_reward,,html-keyboard-response,191,385381,0.0-163.0,0,0,RTY50,,0.164,,,32.0,,5.0,,15.0,,,,1.0,,,,,1.0,,,,,,154.0,164.0,,,,,,,,,,,,,,,,,V1,reward_learning
192,,reward_outcome,,html-keyboard-response,192,387387,0.0-164.0,0,0,RTY50,,0.51,,,40.0,,5.0,,15.0,,,,,,,,,,,,,,,,,-1.0,510.0,,,,,,,,,,,,,,,V1,reward_learning
193,,fixation,,html-keyboard-response,193,388393,0.0-167.0,0,0,RTY50,,,,,,,,,,,,,,,,,,,,,,,,,,,,,,,,,,,,,,,,,,V1,reward_learning
194,,see_reward,,html-keyboard-response,194,388691,0.0-168.0,0,0,RTY50,,0.297,,,32.0,,20.0,,16.0,,,,-1.0,,,,,1.0,,,,,,0.0,297.0,,,,,,,,,,,,,,,,,V1,reward_learning
195,,reward_outcome,,html-keyboard-response,195,390698,0.0-169.0,0,0,RTY50,,0.696,,,40.0,,20.0,,16.0,,,,,,,,,,,,,,,,,-1.0,696.0,,,,,,,,,,,,,,,V1,reward_learning
196,,fixation,,html-keyboard-response,196,391704,0.0-172.0,0,0,RTY50,,,,,,,,,,,,,,,,,,,,,,,,,,,,,,,,,,,,,,,,,,V1,reward_learning
197,,see_reward,,html-keyboard-response,197,391992,0.0-173.0,0,0,RTY50,,0.285,,,32.0,,60.0,,17.0,,,,1.0,,,,,1.0,,,,,,150.0,285.0,,,,,,,,,,,,,,,,,V1,reward_learning
198,,reward_outcome,,html-keyboard-response,198,393998,0.0-174.0,0,0,RTY50,,0.782,,,38.0,,60.0,,17.0,,,,,,,,,,,,,,,,,1.0,782.0,,,,,,,,,,,,,,,V1,reward_learning
199,,fixation,,html-keyboard-response,199,395004,0.0-177.0,0,0,RTY50,,,,,,,,,,,,,,,,,,,,,,,,,,,,,,,,,,,,,,,,,,V1,reward_learning
200,,see_reward,,html-keyboard-response,200,395401,0.0-178.0,0,0,RTY50,,0.395,,,32.0,,59.0,,18.0,,,,-1.0,,,,,1.0,,,,,,0.0,395.0,,,,,,,,,,,,,,,,,V1,reward_learning
201,,reward_outcome,,html-keyboard-response,201,397406,0.0-179.0,0,0,RTY50,,0.764,,,38.0,,59.0,,18.0,,,,,,,,,,,,,,,,,1.0,764.0,,,,,,,,,,,,,,,V1,reward_learning
202,,fixation,,html-keyboard-response,202,398411,0.0-182.0,0,0,RTY50,,,,,,,,,,,,,,,,,,,,,,,,,,,,,,,,,,,,,,,,,,V1,reward_learning
203,,see_reward,,html-keyboard-response,203,398491,0.0-183.0,0,0,RTY50,,0.077,,,32.0,,20.0,,19.0,,,,-1.0,,,,,1.0,,,,,,0.0,77.0,,,,,,,,,,,,,,,,,V1,reward_learning
204,,reward_outcome,,html-keyboard-response,204,400497,0.0-184.0,0,0,RTY50,,0.902,,,38.0,,20.0,,19.0,,,,,,,,,,,,,,,,,1.0,902.0,,,,,,,,,,,,,,,V1,reward_learning
205,,fixation,,html-keyboard-response,205,401502,0.0-187.0,0,0,RTY50,,,,,,,,,,,,,,,,,,,,,,,,,,,,,,,,,,,,,,,,,,V1,reward_learning
206,,see_reward,,html-keyboard-response,206,401872,0.0-188.0,0,0,RTY50,,0.367,,,32.0,,60.0,,20.0,,,,1.0,,,,,1.0,,,,,,150.0,367.0,,,,,,,,,,,,,,,,,V1,reward_learning
207,,reward_outcome,,html-keyboard-response,207,403878,0.0-189.0,0,0,RTY50,,0.568,,,40.0,,60.0,,20.0,,,,,,,,,,,,,,,,,-1.0,568.0,,,,,,,,,,,,,,,V1,reward_learning
208,,fixation,,html-keyboard-response,208,404884,0.0-192.0,0,0,RTY50,,,,,,,,,,,,,,,,,,,,,,,,,,,,,,,,,,,,,,,,,,V1,reward_learning
209,,see_reward,,html-keyboard-response,209,405255,0.0-193.0,0,0,RTY50,,0.369,,,32.0,,59.0,,21.0,,,,-1.0,,,,,1.0,,,,,,0.0,369.0,,,,,,,,,,,,,,,,,V1,reward_learning
210,,reward_outcome,,html-keyboard-response,210,407261,0.0-194.0,0,0,RTY50,,0.827,,,40.0,,59.0,,21.0,,,,,,,,,,,,,,,,,-1.0,827.0,,,,,,,,,,,,,,,V1,reward_learning
211,,fixation,,html-keyboard-response,211,408267,0.0-197.0,0,0,RTY50,,,,,,,,,,,,,,,,,,,,,,,,,,,,,,,,,,,,,,,,,,V1,reward_learning
212,,see_reward,,html-keyboard-response,212,408669,0.0-198.0,0,0,RTY50,,0.4,,,32.0,,51.0,,22.0,,,,1.0,,,,,1.0,,,,,,156.0,400.0,,,,,,,,,,,,,,,,,V1,reward_learning
213,,reward_outcome,,html-keyboard-response,213,410675,0.0-199.0,0,0,RTY50,,0.538,,,40.0,,51.0,,22.0,,,,,,,,,,,,,,,,,-1.0,538.0,,,,,,,,,,,,,,,V1,reward_learning
214,,fixation,,html-keyboard-response,214,411680,0.0-202.0,0,0,RTY50,,,,,,,,,,,,,,,,,,,,,,,,,,,,,,,,,,,,,,,,,,V1,reward_learning
215,,see_reward,,html-keyboard-response,215,412062,0.0-203.0,0,0,RTY50,,0.381,,,32.0,,64.0,,23.0,,,,-1.0,,,,,1.0,,,,,,0.0,381.0,,,,,,,,,,,,,,,,,V1,reward_learning
216,,reward_outcome,,html-keyboard-response,216,414067,0.0-204.0,0,0,RTY50,,0.889,,,40.0,,64.0,,23.0,,,,,,,,,,,,,,,,,-1.0,889.0,,,,,,,,,,,,,,,V1,reward_learning
217,,block_over,,html-keyboard-response,217,416208,0.0-206.0-0.0,0,0,RTY50,,2.139,,,78.0,,,,,,,,,,,,,,,,,,,,,,,,,,,,,,,,,,,,,V1,reward_learning
218,,fixation,,html-keyboard-response,218,417212,0.0-207.0,0,0,RTY50,,,,,,,,,,,,,,,,,,,,,,,,,,,,,,,,,,,,,,,,,,V1,reward_learning
219,,see_reward,,html-keyboard-response,219,417544,0.0-208.0,0,0,RTY50,,0.33,,,32.0,,41.0,,24.0,,,,-1.0,,,,,2.0,,,,,,0.0,330.0,,,,,,,,,,,,,,,,,V1,reward_learning
220,,reward_outcome,,html-keyboard-response,220,419550,0.0-209.0,0,0,RTY50,,0.362,,,38.0,,41.0,,24.0,,,,,,,,,,,,,,,,,1.0,362.0,,,,,,,,,,,,,,,V1,reward_learning
221,,fixation,,html-keyboard-response,221,420555,0.0-212.0,0,0,RTY50,,,,,,,,,,,,,,,,,,,,,,,,,,,,,,,,,,,,,,,,,,V1,reward_learning
222,,see_reward,,html-keyboard-response,222,420930,0.0-213.0,0,0,RTY50,,0.373,,,32.0,,51.0,,25.0,,,,1.0,,,,,2.0,,,,,,156.0,373.0,,,,,,,,,,,,,,,,,V1,reward_learning
223,,reward_outcome,,html-keyboard-response,223,422937,0.0-214.0,0,0,RTY50,,0.057,,,38.0,,51.0,,25.0,,,,,,,,,,,,,,,,,1.0,57.0,,,,,,,,,,,,,,,V1,reward_learning
224,,fixation,,html-keyboard-response,224,423942,0.0-217.0,0,0,RTY50,,,,,,,,,,,,,,,,,,,,,,,,,,,,,,,,,,,,,,,,,,V1,reward_learning
225,,see_reward,,html-keyboard-response,225,424284,0.0-218.0,0,0,RTY50,,0.34,,,32.0,,59.0,,26.0,,,,-1.0,,,,,2.0,,,,,,0.0,340.0,,,,,,,,,,,,,,,,,V1,reward_learning
226,,reward_outcome,,html-keyboard-response,226,426289,0.0-219.0,0,0,RTY50,,0.058,,,38.0,,59.0,,26.0,,,,,,,,,,,,,,,,,1.0,58.0,,,,,,,,,,,,,,,V1,reward_learning
227,,fixation,,html-keyboard-response,227,427294,0.0-222.0,0,0,RTY50,,,,,,,,,,,,,,,,,,,,,,,,,,,,,,,,,,,,,,,,,,V1,reward_learning
228,,see_reward,,html-keyboard-response,228,428610,0.0-223.0,0,0,RTY50,,1.313,,,32.0,,23.0,,27.0,,,,1.0,,,,,2.0,,,,,,146.0,1313.0,,,,,,,,,,,,,,,,,V1,reward_learning
229,,reward_outcome,,html-keyboard-response,229,430617,0.0-224.0,0,0,RTY50,,0.031,,,38.0,,23.0,,27.0,,,,,,,,,,,,,,,,,1.0,31.0,,,,,,,,,,,,,,,V1,reward_learning
230,,fixation,,html-keyboard-response,230,431621,0.0-227.0,0,0,RTY50,,,,,,,,,,,,,,,,,,,,,,,,,,,,,,,,,,,,,,,,,,V1,reward_learning
231,,see_reward,,html-keyboard-response,231,432560,0.0-228.0,0,0,RTY50,,0.937,,,32.0,,48.0,,28.0,,,,-1.0,,,,,2.0,,,,,,0.0,937.0,,,,,,,,,,,,,,,,,V1,reward_learning
232,,reward_outcome,,html-keyboard-response,232,434566,0.0-229.0,0,0,RTY50,,0.031,,,38.0,,48.0,,28.0,,,,,,,,,,,,,,,,,1.0,31.0,,,,,,,,,,,,,,,V1,reward_learning
233,,fixation,,html-keyboard-response,233,435569,0.0-232.0,0,0,RTY50,,,,,,,,,,,,,,,,,,,,,,,,,,,,,,,,,,,,,,,,,,V1,reward_learning
234,,see_reward,,html-keyboard-response,234,437310,0.0-233.0,0,0,RTY50,,1.738,,,32.0,,48.0,,29.0,,,,-1.0,,,,,2.0,,,,,,0.0,1738.0,,,,,,,,,,,,,,,,,V1,reward_learning
235,,reward_outcome,,html-keyboard-response,235,439315,0.0-234.0,0,0,RTY50,,0.073,,,38.0,,48.0,,29.0,,,,,,,,,,,,,,,,,1.0,73.0,,,,,,,,,,,,,,,V1,reward_learning
236,,fixation,,html-keyboard-response,236,440320,0.0-237.0,0,0,RTY50,,,,,,,,,,,,,,,,,,,,,,,,,,,,,,,,,,,,,,,,,,V1,reward_learning
237,,see_reward,,html-keyboard-response,237,441875,0.0-238.0,0,0,RTY50,,1.553,,,32.0,,20.0,,30.0,,,,-1.0,,,,,2.0,,,,,,0.0,1553.0,,,,,,,,,,,,,,,,,V1,reward_learning
238,,reward_outcome,,html-keyboard-response,238,443881,0.0-239.0,0,0,RTY50,,0.031,,,38.0,,20.0,,30.0,,,,,,,,,,,,,,,,,1.0,31.0,,,,,,,,,,,,,,,V1,reward_learning
239,,fixation,,html-keyboard-response,239,444886,0.0-242.0,0,0,RTY50,,,,,,,,,,,,,,,,,,,,,,,,,,,,,,,,,,,,,,,,,,V1,reward_learning
240,,see_reward,,html-keyboard-response,240,444994,0.0-243.0,0,0,RTY50,,0.104,,,32.0,,61.0,,31.0,,,,1.0,,,,,2.0,,,,,,158.0,104.0,,,,,,,,,,,,,,,,,V1,reward_learning
241,,reward_outcome,,html-keyboard-response,241,447000,0.0-244.0,0,0,RTY50,,0.083,,,38.0,,61.0,,31.0,,,,,,,,,,,,,,,,,1.0,83.0,,,,,,,,,,,,,,,V1,reward_learning
242,,fixation,,html-keyboard-response,242,448005,0.0-247.0,0,0,RTY50,,,,,,,,,,,,,,,,,,,,,,,,,,,,,,,,,,,,,,,,,,V1,reward_learning
243,,see_reward,,html-keyboard-response,243,448346,0.0-248.0,0,0,RTY50,,0.339,,,32.0,,23.0,,32.0,,,,1.0,,,,,2.0,,,,,,146.0,339.0,,,,,,,,,,,,,,,,,V1,reward_learning
244,,reward_outcome,,html-keyboard-response,244,450353,0.0-249.0,0,0,RTY50,,0.081,,,38.0,,23.0,,32.0,,,,,,,,,,,,,,,,,1.0,81.0,,,,,,,,,,,,,,,V1,reward_learning
245,,fixation,,html-keyboard-response,245,451358,0.0-252.0,0,0,RTY50,,,,,,,,,,,,,,,,,,,,,,,,,,,,,,,,,,,,,,,,,,V1,reward_learning
246,,see_reward,,html-keyboard-response,246,451455,0.0-253.0,0,0,RTY50,,0.095,,,32.0,,59.0,,33.0,,,,-1.0,,,,,2.0,,,,,,0.0,95.0,,,,,,,,,,,,,,,,,V1,reward_learning
247,,reward_outcome,,html-keyboard-response,247,453459,0.0-254.0,0,0,RTY50,,0.158,,,38.0,,59.0,,33.0,,,,,,,,,,,,,,,,,1.0,158.0,,,,,,,,,,,,,,,V1,reward_learning
248,,fixation,,html-keyboard-response,248,454465,0.0-257.0,0,0,RTY50,,,,,,,,,,,,,,,,,,,,,,,,,,,,,,,,,,,,,,,,,,V1,reward_learning
249,,see_reward,,html-keyboard-response,249,454948,0.0-258.0,0,0,RTY50,,0.481,,,32.0,,52.0,,34.0,,,,1.0,,,,,2.0,,,,,,159.0,481.0,,,,,,,,,,,,,,,,,V1,reward_learning
250,,reward_outcome,,html-keyboard-response,250,456952,0.0-259.0,0,0,RTY50,,0.102,,,38.0,,52.0,,34.0,,,,,,,,,,,,,,,,,1.0,102.0,,,,,,,,,,,,,,,V1,reward_learning
251,,fixation,,html-keyboard-response,251,457958,0.0-262.0,0,0,RTY50,,,,,,,,,,,,,,,,,,,,,,,,,,,,,,,,,,,,,,,,,,V1,reward_learning
252,,see_reward,,html-keyboard-response,252,458364,0.0-263.0,0,0,RTY50,,0.405,,,32.0,,52.0,,35.0,,,,1.0,,,,,2.0,,,,,,159.0,405.0,,,,,,,,,,,,,,,,,V1,reward_learning
253,,reward_outcome,,html-keyboard-response,253,460369,0.0-264.0,0,0,RTY50,,0.082,,,38.0,,52.0,,35.0,,,,,,,,,,,,,,,,,1.0,82.0,,,,,,,,,,,,,,,V1,reward_learning
254,,fixation,,html-keyboard-response,254,461376,0.0-267.0,0,0,RTY50,,,,,,,,,,,,,,,,,,,,,,,,,,,,,,,,,,,,,,,,,,V1,reward_learning
255,,see_reward,,html-keyboard-response,255,462611,0.0-268.0,0,0,RTY50,,1.233,,,32.0,,64.0,,36.0,,,,-1.0,,,,,2.0,,,,,,0.0,1233.0,,,,,,,,,,,,,,,,,V1,reward_learning
256,,reward_outcome,,html-keyboard-response,256,464616,0.0-269.0,0,0,RTY50,,0.101,,,38.0,,64.0,,36.0,,,,,,,,,,,,,,,,,1.0,101.0,,,,,,,,,,,,,,,V1,reward_learning
257,,fixation,,html-keyboard-response,257,465619,0.0-272.0,0,0,RTY50,,,,,,,,,,,,,,,,,,,,,,,,,,,,,,,,,,,,,,,,,,V1,reward_learning
258,,see_reward,,html-keyboard-response,258,465781,0.0-273.0,0,0,RTY50,,0.16,,,32.0,,51.0,,37.0,,,,1.0,,,,,2.0,,,,,,156.0,160.0,,,,,,,,,,,,,,,,,V1,reward_learning
259,,reward_outcome,,html-keyboard-response,259,467788,0.0-274.0,0,0,RTY50,,0.116,,,38.0,,51.0,,37.0,,,,,,,,,,,,,,,,,1.0,116.0,,,,,,,,,,,,,,,V1,reward_learning
260,,fixation,,html-keyboard-response,260,468793,0.0-277.0,0,0,RTY50,,,,,,,,,,,,,,,,,,,,,,,,,,,,,,,,,,,,,,,,,,V1,reward_learning
261,,see_reward,,html-keyboard-response,261,468909,0.0-278.0,0,0,RTY50,,0.114,,,32.0,,60.0,,38.0,,,,1.0,,,,,2.0,,,,,,150.0,114.0,,,,,,,,,,,,,,,,,V1,reward_learning
262,,reward_outcome,,html-keyboard-response,262,470915,0.0-279.0,0,0,RTY50,,0.065,,,38.0,,60.0,,38.0,,,,,,,,,,,,,,,,,1.0,65.0,,,,,,,,,,,,,,,V1,reward_learning
263,,fixation,,html-keyboard-response,263,471920,0.0-282.0,0,0,RTY50,,,,,,,,,,,,,,,,,,,,,,,,,,,,,,,,,,,,,,,,,,V1,reward_learning
264,,see_reward,,html-keyboard-response,264,471929,0.0-283.0,0,0,RTY50,,0.007,,,32.0,,5.0,,39.0,,,,1.0,,,,,2.0,,,,,,154.0,7.0,,,,,,,,,,,,,,,,,V1,reward_learning
265,,reward_outcome,,html-keyboard-response,265,473932,0.0-284.0,0,0,RTY50,,0.057,,,38.0,,5.0,,39.0,,,,,,,,,,,,,,,,,1.0,57.0,,,,,,,,,,,,,,,V1,reward_learning
266,,fixation,,html-keyboard-response,266,474937,0.0-287.0,0,0,RTY50,,,,,,,,,,,,,,,,,,,,,,,,,,,,,,,,,,,,,,,,,,V1,reward_learning
267,,see_reward,,html-keyboard-response,267,475014,0.0-288.0,0,0,RTY50,,0.075,,,32.0,,20.0,,40.0,,,,-1.0,,,,,2.0,,,,,,0.0,75.0,,,,,,,,,,,,,,,,,V1,reward_learning
268,,reward_outcome,,html-keyboard-response,268,477020,0.0-289.0,0,0,RTY50,,0.066,,,38.0,,20.0,,40.0,,,,,,,,,,,,,,,,,1.0,66.0,,,,,,,,,,,,,,,V1,reward_learning
269,,fixation,,html-keyboard-response,269,478024,0.0-292.0,0,0,RTY50,,,,,,,,,,,,,,,,,,,,,,,,,,,,,,,,,,,,,,,,,,V1,reward_learning
270,,see_reward,,html-keyboard-response,270,478598,0.0-293.0,0,0,RTY50,,0.571,,,32.0,,64.0,,41.0,,,,-1.0,,,,,2.0,,,,,,0.0,571.0,,,,,,,,,,,,,,,,,V1,reward_learning
271,,reward_outcome,,html-keyboard-response,271,480604,0.0-294.0,0,0,RTY50,,0.054,,,38.0,,64.0,,41.0,,,,,,,,,,,,,,,,,1.0,54.0,,,,,,,,,,,,,,,V1,reward_learning
272,,fixation,,html-keyboard-response,272,481609,0.0-297.0,0,0,RTY50,,,,,,,,,,,,,,,,,,,,,,,,,,,,,,,,,,,,,,,,,,V1,reward_learning
273,,see_reward,,html-keyboard-response,273,481791,0.0-298.0,0,0,RTY50,,0.18,,,32.0,,60.0,,42.0,,,,1.0,,,,,2.0,,,,,,150.0,180.0,,,,,,,,,,,,,,,,,V1,reward_learning
274,,reward_outcome,,html-keyboard-response,274,483794,0.0-299.0,0,0,RTY50,,0.056,,,38.0,,60.0,,42.0,,,,,,,,,,,,,,,,,1.0,56.0,,,,,,,,,,,,,,,V1,reward_learning
275,,fixation,,html-keyboard-response,275,484800,0.0-302.0,0,0,RTY50,,,,,,,,,,,,,,,,,,,,,,,,,,,,,,,,,,,,,,,,,,V1,reward_learning
276,,see_reward,,html-keyboard-response,276,485631,0.0-303.0,0,0,RTY50,,0.829,,,32.0,,16.0,,43.0,,,,-1.0,,,,,2.0,,,,,,0.0,829.0,,,,,,,,,,,,,,,,,V1,reward_learning
277,,reward_outcome,,html-keyboard-response,277,487638,0.0-304.0,0,0,RTY50,,0.061,,,38.0,,16.0,,43.0,,,,,,,,,,,,,,,,,1.0,61.0,,,,,,,,,,,,,,,V1,reward_learning
278,,fixation,,html-keyboard-response,278,488645,0.0-307.0,0,0,RTY50,,,,,,,,,,,,,,,,,,,,,,,,,,,,,,,,,,,,,,,,,,V1,reward_learning
279,,see_reward,,html-keyboard-response,279,488773,0.0-308.0,0,0,RTY50,,0.126,,,32.0,,16.0,,44.0,,,,-1.0,,,,,2.0,,,,,,0.0,126.0,,,,,,,,,,,,,,,,,V1,reward_learning
280,,reward_outcome,,html-keyboard-response,280,490780,0.0-309.0,0,0,RTY50,,0.04,,,38.0,,16.0,,44.0,,,,,,,,,,,,,,,,,1.0,40.0,,,,,,,,,,,,,,,V1,reward_learning
281,,fixation,,html-keyboard-response,281,491782,0.0-312.0,0,0,RTY50,,,,,,,,,,,,,,,,,,,,,,,,,,,,,,,,,,,,,,,,,,V1,reward_learning
282,,see_reward,,html-keyboard-response,282,492899,0.0-313.0,0,0,RTY50,,1.115,,,32.0,,41.0,,45.0,,,,-1.0,,,,,2.0,,,,,,0.0,1115.0,,,,,,,,,,,,,,,,,V1,reward_learning
283,,reward_outcome,,html-keyboard-response,283,494904,0.0-314.0,0,0,RTY50,,0.12,,,38.0,,41.0,,45.0,,,,,,,,,,,,,,,,,1.0,120.0,,,,,,,,,,,,,,,V1,reward_learning
284,,fixation,,html-keyboard-response,284,495907,0.0-317.0,0,0,RTY50,,,,,,,,,,,,,,,,,,,,,,,,,,,,,,,,,,,,,,,,,,V1,reward_learning
285,,see_reward,,html-keyboard-response,285,496656,0.0-318.0,0,0,RTY50,,0.747,,,32.0,,61.0,,46.0,,,,1.0,,,,,2.0,,,,,,158.0,747.0,,,,,,,,,,,,,,,,,V1,reward_learning
286,,reward_outcome,,html-keyboard-response,286,498662,0.0-319.0,0,0,RTY50,,0.077,,,38.0,,61.0,,46.0,,,,,,,,,,,,,,,,,1.0,77.0,,,,,,,,,,,,,,,V1,reward_learning
287,,fixation,,html-keyboard-response,287,499665,0.0-322.0,0,0,RTY50,,,,,,,,,,,,,,,,,,,,,,,,,,,,,,,,,,,,,,,,,,V1,reward_learning
288,,see_reward,,html-keyboard-response,288,499963,0.0-323.0,0,0,RTY50,,0.296,,,32.0,,5.0,,47.0,,,,1.0,,,,,2.0,,,,,,154.0,296.0,,,,,,,,,,,,,,,,,V1,reward_learning
289,,reward_outcome,,html-keyboard-response,289,501969,0.0-324.0,0,0,RTY50,,0.054,,,38.0,,5.0,,47.0,,,,,,,,,,,,,,,,,1.0,54.0,,,,,,,,,,,,,,,V1,reward_learning
290,,block_over,,html-keyboard-response,290,509596,0.0-326.0-0.0,0,0,RTY50,,7.625,,,78.0,,,,,,,,,,,,,,,,,,,,,,,,,,,,,,,,,,,,,V1,reward_learning
291,,fixation,,html-keyboard-response,291,510601,0.0-327.0,0,0,RTY50,,,,,,,,,,,,,,,,,,,,,,,,,,,,,,,,,,,,,,,,,,V1,reward_learning
292,,see_reward,,html-keyboard-response,292,511232,0.0-328.0,0,0,RTY50,,0.629,,,32.0,,5.0,,48.0,,,,1.0,,,,,3.0,,,,,,154.0,629.0,,,,,,,,,,,,,,,,,V1,reward_learning
293,,reward_outcome,,html-keyboard-response,293,513238,0.0-329.0,0,0,RTY50,,0.074,,,38.0,,5.0,,48.0,,,,,,,,,,,,,,,,,1.0,74.0,,,,,,,,,,,,,,,V1,reward_learning
294,,fixation,,html-keyboard-response,294,514243,0.0-332.0,0,0,RTY50,,,,,,,,,,,,,,,,,,,,,,,,,,,,,,,,,,,,,,,,,,V1,reward_learning
295,,see_reward,,html-keyboard-response,295,515076,0.0-333.0,0,0,RTY50,,0.831,,,32.0,,20.0,,49.0,,,,-1.0,,,,,3.0,,,,,,0.0,831.0,,,,,,,,,,,,,,,,,V1,reward_learning
296,,reward_outcome,,html-keyboard-response,296,517080,0.0-334.0,0,0,RTY50,,0.044,,,38.0,,20.0,,49.0,,,,,,,,,,,,,,,,,1.0,44.0,,,,,,,,,,,,,,,V1,reward_learning
297,,fixation,,html-keyboard-response,297,518086,0.0-337.0,0,0,RTY50,,,,,,,,,,,,,,,,,,,,,,,,,,,,,,,,,,,,,,,,,,V1,reward_learning
298,,see_reward,,html-keyboard-response,298,519220,0.0-338.0,0,0,RTY50,,1.132,,,32.0,,61.0,,50.0,,,,1.0,,,,,3.0,,,,,,158.0,1132.0,,,,,,,,,,,,,,,,,V1,reward_learning
299,,reward_outcome,,html-keyboard-response,299,521227,0.0-339.0,0,0,RTY50,,0.045,,,38.0,,61.0,,50.0,,,,,,,,,,,,,,,,,1.0,45.0,,,,,,,,,,,,,,,V1,reward_learning
300,,fixation,,html-keyboard-response,300,522233,0.0-342.0,0,0,RTY50,,,,,,,,,,,,,,,,,,,,,,,,,,,,,,,,,,,,,,,,,,V1,reward_learning
301,,see_reward,,html-keyboard-response,301,524579,0.0-343.0,0,0,RTY50,,2.344,,,32.0,,48.0,,51.0,,,,-1.0,,,,,3.0,,,,,,0.0,2344.0,,,,,,,,,,,,,,,,,V1,reward_learning
302,,reward_outcome,,html-keyboard-response,302,526585,0.0-344.0,0,0,RTY50,,0.053,,,38.0,,48.0,,51.0,,,,,,,,,,,,,,,,,1.0,53.0,,,,,,,,,,,,,,,V1,reward_learning
303,,fixation,,html-keyboard-response,303,527587,0.0-347.0,0,0,RTY50,,,,,,,,,,,,,,,,,,,,,,,,,,,,,,,,,,,,,,,,,,V1,reward_learning
304,,see_reward,,html-keyboard-response,304,528250,0.0-348.0,0,0,RTY50,,0.66,,,32.0,,5.0,,52.0,,,,1.0,,,,,3.0,,,,,,154.0,660.0,,,,,,,,,,,,,,,,,V1,reward_learning
305,,reward_outcome,,html-keyboard-response,305,530257,0.0-349.0,0,0,RTY50,,0.076,,,38.0,,5.0,,52.0,,,,,,,,,,,,,,,,,1.0,76.0,,,,,,,,,,,,,,,V1,reward_learning
306,,fixation,,html-keyboard-response,306,531262,0.0-352.0,0,0,RTY50,,,,,,,,,,,,,,,,,,,,,,,,,,,,,,,,,,,,,,,,,,V1,reward_learning
307,,see_reward,,html-keyboard-response,307,531746,0.0-353.0,0,0,RTY50,,0.482,,,32.0,,16.0,,53.0,,,,-1.0,,,,,3.0,,,,,,0.0,482.0,,,,,,,,,,,,,,,,,V1,reward_learning
308,,reward_outcome,,html-keyboard-response,308,533752,0.0-354.0,0,0,RTY50,,0.051,,,38.0,,16.0,,53.0,,,,,,,,,,,,,,,,,1.0,51.0,,,,,,,,,,,,,,,V1,reward_learning
309,,fixation,,html-keyboard-response,309,534758,0.0-357.0,0,0,RTY50,,,,,,,,,,,,,,,,,,,,,,,,,,,,,,,,,,,,,,,,,,V1,reward_learning
310,,see_reward,,html-keyboard-response,310,535107,0.0-358.0,0,0,RTY50,,0.347,,,32.0,,51.0,,54.0,,,,1.0,,,,,3.0,,,,,,156.0,347.0,,,,,,,,,,,,,,,,,V1,reward_learning
311,,reward_outcome,,html-keyboard-response,311,537112,0.0-359.0,0,0,RTY50,,0.023,,,38.0,,51.0,,54.0,,,,,,,,,,,,,,,,,1.0,23.0,,,,,,,,,,,,,,,V1,reward_learning
312,,fixation,,html-keyboard-response,312,538118,0.0-362.0,0,0,RTY50,,,,,,,,,,,,,,,,,,,,,,,,,,,,,,,,,,,,,,,,,,V1,reward_learning
313,,see_reward,,html-keyboard-response,313,540302,0.0-363.0,0,0,RTY50,,2.182,,,32.0,,60.0,,55.0,,,,1.0,,,,,3.0,,,,,,150.0,2182.0,,,,,,,,,,,,,,,,,V1,reward_learning
314,,reward_outcome,,html-keyboard-response,314,542304,0.0-364.0,0,0,RTY50,,0.085,,,38.0,,60.0,,55.0,,,,,,,,,,,,,,,,,1.0,85.0,,,,,,,,,,,,,,,V1,reward_learning
315,,fixation,,html-keyboard-response,315,543309,0.0-367.0,0,0,RTY50,,,,,,,,,,,,,,,,,,,,,,,,,,,,,,,,,,,,,,,,,,V1,reward_learning
316,,see_reward,,html-keyboard-response,316,543350,0.0-368.0,0,0,RTY50,,0.038,,,32.0,,23.0,,56.0,,,,1.0,,,,,3.0,,,,,,146.0,38.0,,,,,,,,,,,,,,,,,V1,reward_learning
317,,reward_outcome,,html-keyboard-response,317,545355,0.0-369.0,0,0,RTY50,,0.018,,,40.0,,23.0,,56.0,,,,,,,,,,,,,,,,,-1.0,18.0,,,,,,,,,,,,,,,V1,reward_learning
318,,fixation,,html-keyboard-response,318,546362,0.0-372.0,0,0,RTY50,,,,,,,,,,,,,,,,,,,,,,,,,,,,,,,,,,,,,,,,,,V1,reward_learning
319,,see_reward,,html-keyboard-response,319,546957,0.0-373.0,0,0,RTY50,,0.593,,,32.0,,52.0,,57.0,,,,1.0,,,,,3.0,,,,,,159.0,593.0,,,,,,,,,,,,,,,,,V1,reward_learning
320,,reward_outcome,,html-keyboard-response,320,548963,0.0-374.0,0,0,RTY50,,0.047,,,40.0,,52.0,,57.0,,,,,,,,,,,,,,,,,-1.0,47.0,,,,,,,,,,,,,,,V1,reward_learning
321,,fixation,,html-keyboard-response,321,549969,0.0-377.0,0,0,RTY50,,,,,,,,,,,,,,,,,,,,,,,,,,,,,,,,,,,,,,,,,,V1,reward_learning
322,,see_reward,,html-keyboard-response,322,550255,0.0-378.0,0,0,RTY50,,0.284,,,32.0,,59.0,,58.0,,,,-1.0,,,,,3.0,,,,,,0.0,284.0,,,,,,,,,,,,,,,,,V1,reward_learning
323,,reward_outcome,,html-keyboard-response,323,552259,0.0-379.0,0,0,RTY50,,0.018,,,40.0,,59.0,,58.0,,,,,,,,,,,,,,,,,-1.0,18.0,,,,,,,,,,,,,,,V1,reward_learning
324,,fixation,,html-keyboard-response,324,553265,0.0-382.0,0,0,RTY50,,,,,,,,,,,,,,,,,,,,,,,,,,,,,,,,,,,,,,,,,,V1,reward_learning
325,,see_reward,,html-keyboard-response,325,553639,0.0-383.0,0,0,RTY50,,0.372,,,32.0,,48.0,,59.0,,,,-1.0,,,,,3.0,,,,,,0.0,372.0,,,,,,,,,,,,,,,,,V1,reward_learning
326,,reward_outcome,,html-keyboard-response,326,555646,0.0-384.0,0,0,RTY50,,0.061,,,40.0,,48.0,,59.0,,,,,,,,,,,,,,,,,-1.0,61.0,,,,,,,,,,,,,,,V1,reward_learning
327,,fixation,,html-keyboard-response,327,556651,0.0-387.0,0,0,RTY50,,,,,,,,,,,,,,,,,,,,,,,,,,,,,,,,,,,,,,,,,,V1,reward_learning
328,,see_reward,,html-keyboard-response,328,557034,0.0-388.0,0,0,RTY50,,0.38,,,32.0,,16.0,,60.0,,,,-1.0,,,,,3.0,,,,,,0.0,380.0,,,,,,,,,,,,,,,,,V1,reward_learning
329,,reward_outcome,,html-keyboard-response,329,559041,0.0-389.0,0,0,RTY50,,0.01,,,40.0,,16.0,,60.0,,,,,,,,,,,,,,,,,-1.0,10.0,,,,,,,,,,,,,,,V1,reward_learning
330,,fixation,,html-keyboard-response,330,560048,0.0-392.0,0,0,RTY50,,,,,,,,,,,,,,,,,,,,,,,,,,,,,,,,,,,,,,,,,,V1,reward_learning
331,,see_reward,,html-keyboard-response,331,560325,0.0-393.0,0,0,RTY50,,0.275,,,32.0,,41.0,,61.0,,,,-1.0,,,,,3.0,,,,,,0.0,275.0,,,,,,,,,,,,,,,,,V1,reward_learning
332,,reward_outcome,,html-keyboard-response,332,562331,0.0-394.0,0,0,RTY50,,0.048,,,40.0,,41.0,,61.0,,,,,,,,,,,,,,,,,-1.0,48.0,,,,,,,,,,,,,,,V1,reward_learning
333,,fixation,,html-keyboard-response,333,563338,0.0-397.0,0,0,RTY50,,,,,,,,,,,,,,,,,,,,,,,,,,,,,,,,,,,,,,,,,,V1,reward_learning
334,,see_reward,,html-keyboard-response,334,563595,0.0-398.0,0,0,RTY50,,0.254,,,32.0,,52.0,,62.0,,,,1.0,,,,,3.0,,,,,,159.0,254.0,,,,,,,,,,,,,,,,,V1,reward_learning
335,,reward_outcome,,html-keyboard-response,335,565600,0.0-399.0,0,0,RTY50,,0.085,,,40.0,,52.0,,62.0,,,,,,,,,,,,,,,,,-1.0,85.0,,,,,,,,,,,,,,,V1,reward_learning
336,,fixation,,html-keyboard-response,336,566606,0.0-402.0,0,0,RTY50,,,,,,,,,,,,,,,,,,,,,,,,,,,,,,,,,,,,,,,,,,V1,reward_learning
337,,see_reward,,html-keyboard-response,337,566937,0.0-403.0,0,0,RTY50,,0.329,,,32.0,,64.0,,63.0,,,,-1.0,,,,,3.0,,,,,,0.0,329.0,,,,,,,,,,,,,,,,,V1,reward_learning
338,,reward_outcome,,html-keyboard-response,338,568942,0.0-404.0,0,0,RTY50,,0.041,,,40.0,,64.0,,63.0,,,,,,,,,,,,,,,,,-1.0,41.0,,,,,,,,,,,,,,,V1,reward_learning
339,,fixation,,html-keyboard-response,339,569947,0.0-407.0,0,0,RTY50,,,,,,,,,,,,,,,,,,,,,,,,,,,,,,,,,,,,,,,,,,V1,reward_learning
340,,see_reward,,html-keyboard-response,340,570438,0.0-408.0,0,0,RTY50,,0.489,,,32.0,,41.0,,64.0,,,,-1.0,,,,,3.0,,,,,,0.0,489.0,,,,,,,,,,,,,,,,,V1,reward_learning
341,,reward_outcome,,html-keyboard-response,341,572443,0.0-409.0,0,0,RTY50,,0.088,,,40.0,,41.0,,64.0,,,,,,,,,,,,,,,,,-1.0,88.0,,,,,,,,,,,,,,,V1,reward_learning
342,,fixation,,html-keyboard-response,342,573449,0.0-412.0,0,0,RTY50,,,,,,,,,,,,,,,,,,,,,,,,,,,,,,,,,,,,,,,,,,V1,reward_learning
343,,see_reward,,html-keyboard-response,343,573777,0.0-413.0,0,0,RTY50,,0.326,,,32.0,,60.0,,65.0,,,,1.0,,,,,3.0,,,,,,150.0,326.0,,,,,,,,,,,,,,,,,V1,reward_learning
344,,reward_outcome,,html-keyboard-response,344,575785,0.0-414.0,0,0,RTY50,,0.087,,,40.0,,60.0,,65.0,,,,,,,,,,,,,,,,,-1.0,87.0,,,,,,,,,,,,,,,V1,reward_learning
345,,fixation,,html-keyboard-response,345,576790,0.0-417.0,0,0,RTY50,,,,,,,,,,,,,,,,,,,,,,,,,,,,,,,,,,,,,,,,,,V1,reward_learning
346,,see_reward,,html-keyboard-response,346,577078,0.0-418.0,0,0,RTY50,,0.286,,,32.0,,61.0,,66.0,,,,1.0,,,,,3.0,,,,,,158.0,286.0,,,,,,,,,,,,,,,,,V1,reward_learning
347,,reward_outcome,,html-keyboard-response,347,579083,0.0-419.0,0,0,RTY50,,0.112,,,40.0,,61.0,,66.0,,,,,,,,,,,,,,,,,-1.0,112.0,,,,,,,,,,,,,,,V1,reward_learning
348,,fixation,,html-keyboard-response,348,580089,0.0-422.0,0,0,RTY50,,,,,,,,,,,,,,,,,,,,,,,,,,,,,,,,,,,,,,,,,,V1,reward_learning
349,,see_reward,,html-keyboard-response,349,580382,0.0-423.0,0,0,RTY50,,0.291,,,32.0,,59.0,,67.0,,,,-1.0,,,,,3.0,,,,,,0.0,291.0,,,,,,,,,,,,,,,,,V1,reward_learning
350,,reward_outcome,,html-keyboard-response,350,582387,0.0-424.0,0,0,RTY50,,0.085,,,38.0,,59.0,,67.0,,,,,,,,,,,,,,,,,1.0,85.0,,,,,,,,,,,,,,,V1,reward_learning
351,,fixation,,html-keyboard-response,351,583394,0.0-427.0,0,0,RTY50,,,,,,,,,,,,,,,,,,,,,,,,,,,,,,,,,,,,,,,,,,V1,reward_learning
352,,see_reward,,html-keyboard-response,352,584048,0.0-428.0,0,0,RTY50,,0.652,,,32.0,,20.0,,68.0,,,,-1.0,,,,,3.0,,,,,,0.0,652.0,,,,,,,,,,,,,,,,,V1,reward_learning
353,,reward_outcome,,html-keyboard-response,353,586054,0.0-429.0,0,0,RTY50,,0.078,,,38.0,,20.0,,68.0,,,,,,,,,,,,,,,,,1.0,78.0,,,,,,,,,,,,,,,V1,reward_learning
354,,fixation,,html-keyboard-response,354,587059,0.0-432.0,0,0,RTY50,,,,,,,,,,,,,,,,,,,,,,,,,,,,,,,,,,,,,,,,,,V1,reward_learning
355,,see_reward,,html-keyboard-response,355,588036,0.0-433.0,0,0,RTY50,,0.975,,,32.0,,23.0,,69.0,,,,1.0,,,,,3.0,,,,,,146.0,975.0,,,,,,,,,,,,,,,,,V1,reward_learning
356,,reward_outcome,,html-keyboard-response,356,590043,0.0-434.0,0,0,RTY50,,0.039,,,38.0,,23.0,,69.0,,,,,,,,,,,,,,,,,1.0,39.0,,,,,,,,,,,,,,,V1,reward_learning
357,,fixation,,html-keyboard-response,357,591048,0.0-437.0,0,0,RTY50,,,,,,,,,,,,,,,,,,,,,,,,,,,,,,,,,,,,,,,,,,V1,reward_learning
358,,see_reward,,html-keyboard-response,358,591902,0.0-438.0,0,0,RTY50,,0.851,,,32.0,,51.0,,70.0,,,,1.0,,,,,3.0,,,,,,156.0,851.0,,,,,,,,,,,,,,,,,V1,reward_learning
359,,reward_outcome,,html-keyboard-response,359,593907,0.0-439.0,0,0,RTY50,,0.059,,,38.0,,51.0,,70.0,,,,,,,,,,,,,,,,,1.0,59.0,,,,,,,,,,,,,,,V1,reward_learning
360,,fixation,,html-keyboard-response,360,594913,0.0-442.0,0,0,RTY50,,,,,,,,,,,,,,,,,,,,,,,,,,,,,,,,,,,,,,,,,,V1,reward_learning
361,,see_reward,,html-keyboard-response,361,595662,0.0-443.0,0,0,RTY50,,0.747,,,32.0,,64.0,,71.0,,,,-1.0,,,,,3.0,,,,,,0.0,747.0,,,,,,,,,,,,,,,,,V1,reward_learning
362,,reward_outcome,,html-keyboard-response,362,597667,0.0-444.0,0,0,RTY50,,0.05,,,38.0,,64.0,,71.0,,,,,,,,,,,,,,,,,1.0,50.0,1.5,,,,,,,,,,,,,,V1,reward_learning
363,,deliberation_reward_tally,,html-keyboard-response,363,610271,0.0-447.0,0,0,RTY50,,12.602,,,78.0,,,,,,,,,,,,,,,,,,,,,,,,,,,,,,,,,,,,,V1,reward_learning
364,,final_decisions_instructions,,instructions,364,626275,0.0-448.0-0.0,0,0,RTY50,"[{""page_index"":0,""viewing_time"":14341},{""page_index"":1,""viewing_time"":1662}]",16.004,,,,,,,,,,,,,,,,,,,,,,,,,,,,,,,,,,,,,,,,V1,final_decisions
365,,final_decisions_comprehension_check,,survey-multi-choice,365,631149,0.0-448.0-1.0,0,0,RTY50,,4.871,"{""Q0"":""True"",""Q1"":""K""}",0.0,,,,,,,,,,,,,,,,,,,,,,,,,,,,,,,,,,,,,,V1,final_decisions
366,,start_phase,,html-keyboard-response,366,632396,0.0-449.0,0,0,RTY50,,1.245,,,78.0,,,,,,,,,,,,,,,,,,,,,,,,,,,,,,,,,,,,,V1,final_decisions
367,,fixation,,html-keyboard-response,367,633400,0.0-450.0,0,0,RTY50,,,,,,,,,,,,,,,,,,,,,,,,,,,,,,,,,,,,,,,,,,V1,final_decisions
368,,final_decisions,,html-keyboard-response,368,633815,0.0-451.0,0,0,RTY50,,0.412,,,75.0,,,,0.0,2.0,14.0,,,50.0,50.0,Dekb1n.jpg,Grib1n.jpg,1.0,0.0,14.0,2.0,,,,,,,,6.0,0.0,0.0,1.0,0.0,,,,,,,,,V1,final_decisions
369,,choice_confirmation,,html-keyboard-response,369,634319,0.0-452.0-0.0,0,0,RTY50,,,,,,,,,0.0,2.0,14.0,,,,,,,,,,,,,,,,,,,,,,,,,,,,,,,V1,final_decisions
370,,fixation,,html-keyboard-response,370,635326,0.0-455.0,0,0,RTY50,,,,,,,,,,,,,,,,,,,,,,,,,,,,,,,,,,,,,,,,,,V1,final_decisions
371,,final_decisions,,html-keyboard-response,371,635660,0.0-456.0,0,0,RTY50,,0.332,,,75.0,,,,1.0,60.0,16.0,,,50.0,50.0,Kupc1n.jpg,Vincc1.jpg,1.0,0.0,16.0,60.0,,,,,,,,1.0,2.0,1.0,1.0,0.0,,,,,,,,,V1,final_decisions
372,,choice_confirmation,,html-keyboard-response,372,636163,0.0-457.0-0.0,0,0,RTY50,,,,,,,,,1.0,60.0,16.0,,,,,,,,,,,,,,,,,,,,,,,,,,,,,,,V1,final_decisions
373,,fixation,,html-keyboard-response,373,637169,0.0-460.0,0,0,RTY50,,,,,,,,,,,,,,,,,,,,,,,,,,,,,,,,,,,,,,,,,,V1,final_decisions
374,,final_decisions,,html-keyboard-response,374,637537,0.0-461.0,0,0,RTY50,,0.366,,,75.0,,,,2.0,47.0,0.0,,,50.0,50.0,Vina1n.jpg,Monb1n.jpg,1.0,0.0,0.0,47.0,,,,,,,,11.0,3.0,0.0,1.0,0.0,,,,,,,,,V1,final_decisions
375,,choice_confirmation,,html-keyboard-response,375,638040,0.0-462.0-0.0,0,0,RTY50,,,,,,,,,2.0,47.0,0.0,,,,,,,,,,,,,,,,,,,,,,,,,,,,,,,V1,final_decisions
376,,fixation,,html-keyboard-response,376,639046,0.0-465.0,0,0,RTY50,,,,,,,,,,,,,,,,,,,,,,,,,,,,,,,,,,,,,,,,,,V1,final_decisions
377,,final_decisions,,html-keyboard-response,377,639333,0.0-466.0,0,0,RTY50,,0.285,,,75.0,,,,3.0,28.0,50.0,,,50.0,50.0,Pice1n.jpg,Klic1n.jpg,1.0,0.0,50.0,28.0,,,,,,,,8.0,2.0,0.0,1.0,0.0,,,,,,,,,V1,final_decisions
378,,choice_confirmation,,html-keyboard-response,378,639838,0.0-467.0-0.0,0,0,RTY50,,,,,,,,,3.0,28.0,50.0,,,,,,,,,,,,,,,,,,,,,,,,,,,,,,,V1,final_decisions
379,,fixation,,html-keyboard-response,379,640843,0.0-470.0,0,0,RTY50,,,,,,,,,,,,,,,,,,,,,,,,,,,,,,,,,,,,,,,,,,V1,final_decisions
380,,final_decisions,,html-keyboard-response,380,641101,0.0-471.0,0,0,RTY50,,0.255,,,75.0,,,,4.0,5.0,64.0,,,50.0,50.0,Pica1n.jpg,Vincb1.jpg,1.0,0.0,64.0,5.0,,,,,,,,11.0,3.0,1.0,1.0,0.0,,,,,,,,,V1,final_decisions
381,,choice_confirmation,,html-keyboard-response,381,641606,0.0-472.0-0.0,0,0,RTY50,,,,,,,,,4.0,5.0,64.0,,,,,,,,,,,,,,,,,,,,,,,,,,,,,,,V1,final_decisions
382,,fixation,,html-keyboard-response,382,642611,0.0-475.0,0,0,RTY50,,,,,,,,,,,,,,,,,,,,,,,,,,,,,,,,,,,,,,,,,,V1,final_decisions
383,,final_decisions,,html-keyboard-response,383,642862,0.0-476.0,0,0,RTY50,,0.248,,,75.0,,,,5.0,60.0,64.0,,,50.0,50.0,Kupc1n.jpg,Vincb1.jpg,1.0,0.0,64.0,60.0,,,,,,,,1.0,3.0,1.0,1.0,0.0,,,,,,,,,V1,final_decisions
384,,choice_confirmation,,html-keyboard-response,384,643366,0.0-477.0-0.0,0,0,RTY50,,,,,,,,,5.0,60.0,64.0,,,,,,,,,,,,,,,,,,,,,,,,,,,,,,,V1,final_decisions
385,,fixation,,html-keyboard-response,385,644371,0.0-480.0,0,0,RTY50,,,,,,,,,,,,,,,,,,,,,,,,,,,,,,,,,,,,,,,,,,V1,final_decisions
386,,final_decisions,,html-keyboard-response,386,645566,0.0-481.0,0,0,RTY50,,1.192,,,75.0,,,,6.0,2.0,29.0,,,50.0,50.0,Dekb1n.jpg,Klinb1.jpg,1.0,0.0,29.0,2.0,,,,,,,,6.0,7.0,0.0,1.0,0.0,,,,,,,,,V1,final_decisions
387,,choice_confirmation,,html-keyboard-response,387,646069,0.0-482.0-0.0,0,0,RTY50,,,,,,,,,6.0,2.0,29.0,,,,,,,,,,,,,,,,,,,,,,,,,,,,,,,V1,final_decisions
388,,fixation,,html-keyboard-response,388,647074,0.0-485.0,0,0,RTY50,,,,,,,,,,,,,,,,,,,,,,,,,,,,,,,,,,,,,,,,,,V1,final_decisions
389,,final_decisions,,html-keyboard-response,389,647574,0.0-486.0,0,0,RTY50,,0.497,,,75.0,,,,7.0,23.0,16.0,,,50.0,50.0,Rohlb1.jpg,Vincc1.jpg,1.0,0.0,16.0,23.0,,,,,,,,10.0,2.0,1.0,1.0,0.0,,,,,,,,,V1,final_decisions
390,,choice_confirmation,,html-keyboard-response,390,648078,0.0-487.0-0.0,0,0,RTY50,,,,,,,,,7.0,23.0,16.0,,,,,,,,,,,,,,,,,,,,,,,,,,,,,,,V1,final_decisions
391,,fixation,,html-keyboard-response,391,649083,0.0-490.0,0,0,RTY50,,,,,,,,,,,,,,,,,,,,,,,,,,,,,,,,,,,,,,,,,,V1,final_decisions
392,,final_decisions,,html-keyboard-response,392,649609,0.0-491.0,0,0,RTY50,,0.523,,,75.0,,,,8.0,16.0,52.0,,,50.0,50.0,Vincc1.jpg,Dekoa1.jpg,1.0,0.0,52.0,16.0,,,,,,,,2.0,9.0,1.0,0.0,1.0,,,,,,,,,V1,final_decisions
393,,choice_confirmation,,html-keyboard-response,393,650112,0.0-492.0-0.0,0,0,RTY50,,,,,,,,,8.0,16.0,52.0,,,,,,,,,,,,,,,,,,,,,,,,,,,,,,,V1,final_decisions
394,,fixation,,html-keyboard-response,394,651118,0.0-495.0,0,0,RTY50,,,,,,,,,,,,,,,,,,,,,,,,,,,,,,,,,,,,,,,,,,V1,final_decisions
395,,final_decisions,,html-keyboard-response,395,651287,0.0-496.0,0,0,RTY50,,0.167,,,75.0,,,,9.0,61.0,48.0,,,50.0,50.0,Grigb1.jpg,Maca1n.jpg,1.0,0.0,48.0,61.0,,,,,,,,8.0,5.0,1.0,1.0,0.0,,,,,,,,,V1,final_decisions
396,,choice_confirmation,,html-keyboard-response,396,651790,0.0-497.0-0.0,0,0,RTY50,,,,,,,,,9.0,61.0,48.0,,,,,,,,,,,,,,,,,,,,,,,,,,,,,,,V1,final_decisions
397,,fixation,,html-keyboard-response,397,652795,0.0-500.0,0,0,RTY50,,,,,,,,,,,,,,,,,,,,,,,,,,,,,,,,,,,,,,,,,,V1,final_decisions
398,,final_decisions,,html-keyboard-response,398,653028,0.0-501.0,0,0,RTY50,,0.23,,,75.0,,,,10.0,59.0,60.0,,,50.0,50.0,Macka1.jpg,Kupc1n.jpg,1.0,0.0,60.0,59.0,,,,,,,,4.0,1.0,1.0,0.0,1.0,,,,,,,,,V1,final_decisions
399,,choice_confirmation,,html-keyboard-response,399,653531,0.0-502.0-0.0,0,0,RTY50,,,,,,,,,10.0,59.0,60.0,,,,,,,,,,,,,,,,,,,,,,,,,,,,,,,V1,final_decisions
400,,fixation,,html-keyboard-response,400,654537,0.0-505.0,0,0,RTY50,,,,,,,,,,,,,,,,,,,,,,,,,,,,,,,,,,,,,,,,,,V1,final_decisions
401,,final_decisions,,html-keyboard-response,401,654672,0.0-506.0,0,0,RTY50,,0.132,,,75.0,,,,11.0,8.0,2.0,,,50.0,50.0,Picd1n.jpg,Dekb1n.jpg,1.0,0.0,2.0,8.0,,,,,,,,4.0,6.0,0.0,0.0,1.0,,,,,,,,,V1,final_decisions
402,,choice_confirmation,,html-keyboard-response,402,655176,0.0-507.0-0.0,0,0,RTY50,,,,,,,,,11.0,8.0,2.0,,,,,,,,,,,,,,,,,,,,,,,,,,,,,,,V1,final_decisions
403,,fixation,,html-keyboard-response,403,656182,0.0-510.0,0,0,RTY50,,,,,,,,,,,,,,,,,,,,,,,,,,,,,,,,,,,,,,,,,,V1,final_decisions
404,,final_decisions,,html-keyboard-response,404,656610,0.0-511.0,0,0,RTY50,,0.426,,,75.0,,,,12.0,63.0,22.0,,,50.0,50.0,Lewia1.jpg,Klina1.jpg,1.0,0.0,22.0,63.0,,,,,,,,1.0,5.0,0.0,1.0,0.0,,,,,,,,,V1,final_decisions
405,,choice_confirmation,,html-keyboard-response,405,657115,0.0-512.0-0.0,0,0,RTY50,,,,,,,,,12.0,63.0,22.0,,,,,,,,,,,,,,,,,,,,,,,,,,,,,,,V1,final_decisions
406,,fixation,,html-keyboard-response,406,658120,0.0-515.0,0,0,RTY50,,,,,,,,,,,,,,,,,,,,,,,,,,,,,,,,,,,,,,,,,,V1,final_decisions
407,,final_decisions,,html-keyboard-response,407,658267,0.0-516.0,0,0,RTY50,,0.145,,,75.0,,,,13.0,8.0,7.0,,,50.0,50.0,Picd1n.jpg,Macb1n.jpg,1.0,0.0,7.0,8.0,,,,,,,,4.0,10.0,0.0,0.0,1.0,,,,,,,,,V1,final_decisions
408,,choice_confirmation,,html-keyboard-response,408,658770,0.0-517.0-0.0,0,0,RTY50,,,,,,,,,13.0,8.0,7.0,,,,,,,,,,,,,,,,,,,,,,,,,,,,,,,V1,final_decisions
409,,fixation,,html-keyboard-response,409,659777,0.0-520.0,0,0,RTY50,,,,,,,,,,,,,,,,,,,,,,,,,,,,,,,,,,,,,,,,,,V1,final_decisions
410,,final_decisions,,html-keyboard-response,410,660666,0.0-521.0,0,0,RTY50,,0.887,,,75.0,,,,14.0,22.0,28.0,,,50.0,50.0,Klina1.jpg,Pice1n.jpg,1.0,0.0,28.0,22.0,,,,,,,,5.0,8.0,0.0,0.0,1.0,,,,,,,,,V1,final_decisions
411,,choice_confirmation,,html-keyboard-response,411,661171,0.0-522.0-0.0,0,0,RTY50,,,,,,,,,14.0,22.0,28.0,,,,,,,,,,,,,,,,,,,,,,,,,,,,,,,V1,final_decisions
412,,fixation,,html-keyboard-response,412,662176,0.0-525.0,0,0,RTY50,,,,,,,,,,,,,,,,,,,,,,,,,,,,,,,,,,,,,,,,,,V1,final_decisions
413,,final_decisions,,html-keyboard-response,413,662471,0.0-526.0,0,0,RTY50,,0.292,,,75.0,,,,15.0,41.0,60.0,,,50.0,50.0,Picae1.jpg,Kupc1n.jpg,1.0,0.0,60.0,41.0,,,,,,,,7.0,1.0,1.0,0.0,1.0,,,,,,,,,V1,final_decisions
414,,choice_confirmation,,html-keyboard-response,414,662975,0.0-527.0-0.0,0,0,RTY50,,,,,,,,,15.0,41.0,60.0,,,,,,,,,,,,,,,,,,,,,,,,,,,,,,,V1,final_decisions
415,,fixation,,html-keyboard-response,415,663982,0.0-530.0,0,0,RTY50,,,,,,,,,,,,,,,,,,,,,,,,,,,,,,,,,,,,,,,,,,V1,final_decisions
416,,final_decisions,,html-keyboard-response,416,664571,0.0-531.0,0,0,RTY50,,0.587,,,75.0,,,,16.0,52.0,20.0,,,50.0,50.0,Dekoa1.jpg,Picb1n.jpg,1.0,0.0,20.0,52.0,,,,,,,,9.0,0.0,1.0,1.0,0.0,,,,,,,,,V1,final_decisions
417,,choice_confirmation,,html-keyboard-response,417,665075,0.0-532.0-0.0,0,0,RTY50,,,,,,,,,16.0,52.0,20.0,,,,,,,,,,,,,,,,,,,,,,,,,,,,,,,V1,final_decisions
418,,fixation,,html-keyboard-response,418,666080,0.0-535.0,0,0,RTY50,,,,,,,,,,,,,,,,,,,,,,,,,,,,,,,,,,,,,,,,,,V1,final_decisions
419,,final_decisions,,html-keyboard-response,419,666349,0.0-536.0,0,0,RTY50,,0.266,,,75.0,,,,17.0,28.0,14.0,,,50.0,50.0,Pice1n.jpg,Grib1n.jpg,1.0,0.0,14.0,28.0,,,,,,,,8.0,0.0,0.0,1.0,0.0,,,,,,,,,V1,final_decisions
420,,choice_confirmation,,html-keyboard-response,420,666854,0.0-537.0-0.0,0,0,RTY50,,,,,,,,,17.0,28.0,14.0,,,,,,,,,,,,,,,,,,,,,,,,,,,,,,,V1,final_decisions
421,,fixation,,html-keyboard-response,421,667859,0.0-540.0,0,0,RTY50,,,,,,,,,,,,,,,,,,,,,,,,,,,,,,,,,,,,,,,,,,V1,final_decisions
422,,final_decisions,,html-keyboard-response,422,668078,0.0-541.0,0,0,RTY50,,0.217,,,75.0,,,,18.0,47.0,14.0,,,50.0,50.0,Vina1n.jpg,Grib1n.jpg,1.0,0.0,14.0,47.0,,,,,,,,11.0,0.0,0.0,1.0,0.0,,,,,,,,,V1,final_decisions
423,,choice_confirmation,,html-keyboard-response,423,668582,0.0-542.0-0.0,0,0,RTY50,,,,,,,,,18.0,47.0,14.0,,,,,,,,,,,,,,,,,,,,,,,,,,,,,,,V1,final_decisions
424,,fixation,,html-keyboard-response,424,669590,0.0-545.0,0,0,RTY50,,,,,,,,,,,,,,,,,,,,,,,,,,,,,,,,,,,,,,,,,,V1,final_decisions
425,,final_decisions,,html-keyboard-response,425,669605,0.0-546.0,0,0,RTY50,,0.013,,,75.0,,,,19.0,61.0,41.0,,,50.0,50.0,Grigb1.jpg,Picae1.jpg,1.0,0.0,41.0,61.0,,,,,,,,8.0,7.0,1.0,1.0,0.0,,,,,,,,,V1,final_decisions
426,,choice_confirmation,,html-keyboard-response,426,670110,0.0-547.0-0.0,0,0,RTY50,,,,,,,,,19.0,61.0,41.0,,,,,,,,,,,,,,,,,,,,,,,,,,,,,,,V1,final_decisions
427,,fixation,,html-keyboard-response,427,671115,0.0-550.0,0,0,RTY50,,,,,,,,,,,,,,,,,,,,,,,,,,,,,,,,,,,,,,,,,,V1,final_decisions
428,,final_decisions,,html-keyboard-response,428,671553,0.0-551.0,0,0,RTY50,,0.435,,,75.0,,,,20.0,29.0,7.0,,,50.0,50.0,Klinb1.jpg,Macb1n.jpg,1.0,0.0,7.0,29.0,,,,,,,,7.0,10.0,0.0,0.0,1.0,,,,,,,,,V1,final_decisions
429,,choice_confirmation,,html-keyboard-response,429,672056,0.0-552.0-0.0,0,0,RTY50,,,,,,,,,20.0,29.0,7.0,,,,,,,,,,,,,,,,,,,,,,,,,,,,,,,V1,final_decisions
430,,fixation,,html-keyboard-response,430,673059,0.0-555.0,0,0,RTY50,,,,,,,,,,,,,,,,,,,,,,,,,,,,,,,,,,,,,,,,,,V1,final_decisions
431,,final_decisions,,html-keyboard-response,431,674177,0.0-556.0,0,0,RTY50,,1.117,,,75.0,,,,21.0,22.0,2.0,,,50.0,50.0,Klina1.jpg,Dekb1n.jpg,1.0,0.0,2.0,22.0,,,,,,,,5.0,6.0,0.0,0.0,1.0,,,,,,,,,V1,final_decisions
432,,choice_confirmation,,html-keyboard-response,432,674680,0.0-557.0-0.0,0,0,RTY50,,,,,,,,,21.0,22.0,2.0,,,,,,,,,,,,,,,,,,,,,,,,,,,,,,,V1,final_decisions
433,,fixation,,html-keyboard-response,433,675683,0.0-560.0,0,0,RTY50,,,,,,,,,,,,,,,,,,,,,,,,,,,,,,,,,,,,,,,,,,V1,final_decisions
434,,final_decisions,,html-keyboard-response,434,677446,0.0-561.0,0,0,RTY50,,1.76,,,75.0,,,,22.0,22.0,47.0,,,50.0,50.0,Klina1.jpg,Vina1n.jpg,1.0,0.0,47.0,22.0,,,,,,,,5.0,11.0,0.0,0.0,1.0,,,,,,,,,V1,final_decisions
435,,choice_confirmation,,html-keyboard-response,435,677949,0.0-562.0-0.0,0,0,RTY50,,,,,,,,,22.0,22.0,47.0,,,,,,,,,,,,,,,,,,,,,,,,,,,,,,,V1,final_decisions
436,,fixation,,html-keyboard-response,436,678955,0.0-565.0,0,0,RTY50,,,,,,,,,,,,,,,,,,,,,,,,,,,,,,,,,,,,,,,,,,V1,final_decisions
437,,final_decisions,,html-keyboard-response,437,679133,0.0-566.0,0,0,RTY50,,0.177,,,75.0,,,,23.0,29.0,63.0,,,50.0,50.0,Klinb1.jpg,Lewia1.jpg,1.0,0.0,63.0,29.0,,,,,,,,7.0,1.0,0.0,0.0,1.0,,,,,,,,,V1,final_decisions
438,,choice_confirmation,,html-keyboard-response,438,679637,0.0-567.0-0.0,0,0,RTY50,,,,,,,,,23.0,29.0,63.0,,,,,,,,,,,,,,,,,,,,,,,,,,,,,,,V1,final_decisions
439,,fixation,,html-keyboard-response,439,680642,0.0-570.0,0,0,RTY50,,,,,,,,,,,,,,,,,,,,,,,,,,,,,,,,,,,,,,,,,,V1,final_decisions
440,,final_decisions,,html-keyboard-response,440,682780,0.0-571.0,0,0,RTY50,,2.136,,,75.0,,,,24.0,20.0,60.0,,,50.0,50.0,Picb1n.jpg,Kupc1n.jpg,1.0,0.0,60.0,20.0,,,,,,,,0.0,1.0,1.0,0.0,1.0,,,,,,,,,V1,final_decisions
441,,choice_confirmation,,html-keyboard-response,441,683282,0.0-572.0-0.0,0,0,RTY50,,,,,,,,,24.0,20.0,60.0,,,,,,,,,,,,,,,,,,,,,,,,,,,,,,,V1,final_decisions
442,,fixation,,html-keyboard-response,442,684288,0.0-575.0,0,0,RTY50,,,,,,,,,,,,,,,,,,,,,,,,,,,,,,,,,,,,,,,,,,V1,final_decisions
443,,final_decisions,,html-keyboard-response,443,684351,0.0-576.0,0,0,RTY50,,0.062,,,75.0,,,,25.0,5.0,41.0,,,50.0,50.0,Pica1n.jpg,Picae1.jpg,1.0,0.0,41.0,5.0,,,,,,,,11.0,7.0,1.0,1.0,0.0,,,,,,,,,V1,final_decisions
444,,choice_confirmation,,html-keyboard-response,444,684856,0.0-577.0-0.0,0,0,RTY50,,,,,,,,,25.0,5.0,41.0,,,,,,,,,,,,,,,,,,,,,,,,,,,,,,,V1,final_decisions
445,,fixation,,html-keyboard-response,445,685859,0.0-580.0,0,0,RTY50,,,,,,,,,,,,,,,,,,,,,,,,,,,,,,,,,,,,,,,,,,V1,final_decisions
446,,final_decisions,,html-keyboard-response,446,686437,0.0-581.0,0,0,RTY50,,0.575,,,75.0,,,,26.0,50.0,63.0,,,50.0,50.0,Klic1n.jpg,Lewia1.jpg,1.0,0.0,63.0,50.0,,,,,,,,2.0,1.0,0.0,0.0,1.0,,,,,,,,,V1,final_decisions
447,,choice_confirmation,,html-keyboard-response,447,686942,0.0-582.0-0.0,0,0,RTY50,,,,,,,,,26.0,50.0,63.0,,,,,,,,,,,,,,,,,,,,,,,,,,,,,,,V1,final_decisions
448,,fixation,,html-keyboard-response,448,687947,0.0-585.0,0,0,RTY50,,,,,,,,,,,,,,,,,,,,,,,,,,,,,,,,,,,,,,,,,,V1,final_decisions
449,,final_decisions,,html-keyboard-response,449,688543,0.0-586.0,0,0,RTY50,,0.593,,,75.0,,,,27.0,59.0,23.0,,,50.0,50.0,Macka1.jpg,Rohlb1.jpg,1.0,0.0,23.0,59.0,,,,,,,,4.0,10.0,1.0,0.0,1.0,,,,,,,,,V1,final_decisions
450,,choice_confirmation,,html-keyboard-response,450,689048,0.0-587.0-0.0,0,0,RTY50,,,,,,,,,27.0,59.0,23.0,,,,,,,,,,,,,,,,,,,,,,,,,,,,,,,V1,final_decisions
451,,fixation,,html-keyboard-response,451,690054,0.0-590.0,0,0,RTY50,,,,,,,,,,,,,,,,,,,,,,,,,,,,,,,,,,,,,,,,,,V1,final_decisions
452,,final_decisions,,html-keyboard-response,452,690524,0.0-591.0,0,0,RTY50,,0.467,,,75.0,,,,28.0,16.0,61.0,,,50.0,50.0,Vincc1.jpg,Grigb1.jpg,1.0,0.0,61.0,16.0,,,,,,,,2.0,8.0,1.0,0.0,1.0,,,,,,,,,V1,final_decisions
453,,choice_confirmation,,html-keyboard-response,453,691027,0.0-592.0-0.0,0,0,RTY50,,,,,,,,,28.0,16.0,61.0,,,,,,,,,,,,,,,,,,,,,,,,,,,,,,,V1,final_decisions
454,,fixation,,html-keyboard-response,454,692032,0.0-595.0,0,0,RTY50,,,,,,,,,,,,,,,,,,,,,,,,,,,,,,,,,,,,,,,,,,V1,final_decisions
455,,final_decisions,,html-keyboard-response,455,693937,0.0-596.0,0,0,RTY50,,1.902,,,75.0,,,,29.0,41.0,52.0,,,50.0,50.0,Picae1.jpg,Dekoa1.jpg,1.0,0.0,52.0,41.0,,,,,,,,7.0,9.0,1.0,0.0,1.0,,,,,,,,,V1,final_decisions
456,,choice_confirmation,,html-keyboard-response,456,694440,0.0-597.0-0.0,0,0,RTY50,,,,,,,,,29.0,41.0,52.0,,,,,,,,,,,,,,,,,,,,,,,,,,,,,,,V1,final_decisions
457,,fixation,,html-keyboard-response,457,695443,0.0-600.0,0,0,RTY50,,,,,,,,,,,,,,,,,,,,,,,,,,,,,,,,,,,,,,,,,,V1,final_decisions
458,,final_decisions,,html-keyboard-response,458,695446,0.0-601.0,0,0,RTY50,,0.0,,,75.0,,,,30.0,28.0,29.0,,,50.0,50.0,Pice1n.jpg,Klinb1.jpg,1.0,0.0,29.0,28.0,,,,,,,,8.0,7.0,0.0,1.0,0.0,,,,,,,,,V1,final_decisions
459,,choice_confirmation,,html-keyboard-response,459,695948,0.0-602.0-0.0,0,0,RTY50,,,,,,,,,30.0,28.0,29.0,,,,,,,,,,,,,,,,,,,,,,,,,,,,,,,V1,final_decisions
460,,fixation,,html-keyboard-response,460,696949,0.0-605.0,0,0,RTY50,,,,,,,,,,,,,,,,,,,,,,,,,,,,,,,,,,,,,,,,,,V1,final_decisions
461,,final_decisions,,html-keyboard-response,461,697737,0.0-606.0,0,0,RTY50,,0.786,,,75.0,,,,31.0,48.0,5.0,,,50.0,50.0,Maca1n.jpg,Pica1n.jpg,1.0,0.0,5.0,48.0,,,,,,,,5.0,11.0,1.0,0.0,1.0,,,,,,,,,V1,final_decisions
462,,choice_confirmation,,html-keyboard-response,462,698239,0.0-607.0-0.0,0,0,RTY50,,,,,,,,,31.0,48.0,5.0,,,,,,,,,,,,,,,,,,,,,,,,,,,,,,,V1,final_decisions
463,,fixation,,html-keyboard-response,463,699247,0.0-610.0,0,0,RTY50,,,,,,,,,,,,,,,,,,,,,,,,,,,,,,,,,,,,,,,,,,V1,final_decisions
464,,final_decisions,,html-keyboard-response,464,699721,0.0-611.0,0,0,RTY50,,0.472,,,75.0,,,,32.0,48.0,51.0,,,50.0,50.0,Maca1n.jpg,Lewic1.jpg,1.0,0.0,51.0,48.0,,,,,,,,5.0,6.0,1.0,0.0,1.0,,,,,,,,,V1,final_decisions
465,,choice_confirmation,,html-keyboard-response,465,700224,0.0-612.0-0.0,0,0,RTY50,,,,,,,,,32.0,48.0,51.0,,,,,,,,,,,,,,,,,,,,,,,,,,,,,,,V1,final_decisions
466,,fixation,,html-keyboard-response,466,701230,0.0-615.0,0,0,RTY50,,,,,,,,,,,,,,,,,,,,,,,,,,,,,,,,,,,,,,,,,,V1,final_decisions
467,,final_decisions,,html-keyboard-response,467,701643,0.0-616.0,0,0,RTY50,,0.411,,,75.0,,,,33.0,63.0,8.0,,,50.0,50.0,Lewia1.jpg,Picd1n.jpg,1.0,0.0,8.0,63.0,,,,,,,,1.0,4.0,0.0,1.0,0.0,,,,,,,,,V1,final_decisions
468,,choice_confirmation,,html-keyboard-response,468,702147,0.0-617.0-0.0,0,0,RTY50,,,,,,,,,33.0,63.0,8.0,,,,,,,,,,,,,,,,,,,,,,,,,,,,,,,V1,final_decisions
469,,fixation,,html-keyboard-response,469,703151,0.0-620.0,0,0,RTY50,,,,,,,,,,,,,,,,,,,,,,,,,,,,,,,,,,,,,,,,,,V1,final_decisions
470,,final_decisions,,html-keyboard-response,470,705107,0.0-621.0,0,0,RTY50,,1.954,,,75.0,,,,34.0,47.0,50.0,,,50.0,50.0,Vina1n.jpg,Klic1n.jpg,1.0,0.0,50.0,47.0,,,,,,,,11.0,2.0,0.0,1.0,0.0,,,,,,,,,V1,final_decisions
471,,choice_confirmation,,html-keyboard-response,471,705611,0.0-622.0-0.0,0,0,RTY50,,,,,,,,,34.0,47.0,50.0,,,,,,,,,,,,,,,,,,,,,,,,,,,,,,,V1,final_decisions
472,,fixation,,html-keyboard-response,472,706616,0.0-625.0,0,0,RTY50,,,,,,,,,,,,,,,,,,,,,,,,,,,,,,,,,,,,,,,,,,V1,final_decisions
473,,final_decisions,,html-keyboard-response,473,706926,0.0-626.0,0,0,RTY50,,0.307,,,75.0,,,,35.0,52.0,48.0,,,50.0,50.0,Dekoa1.jpg,Maca1n.jpg,1.0,0.0,48.0,52.0,,,,,,,,9.0,5.0,1.0,1.0,0.0,,,,,,,,,V1,final_decisions
474,,choice_confirmation,,html-keyboard-response,474,707429,0.0-627.0-0.0,0,0,RTY50,,,,,,,,,35.0,52.0,48.0,,,,,,,,,,,,,,,,,,,,,,,,,,,,,,,V1,final_decisions
475,,fixation,,html-keyboard-response,475,708435,0.0-630.0,0,0,RTY50,,,,,,,,,,,,,,,,,,,,,,,,,,,,,,,,,,,,,,,,,,V1,final_decisions
476,,final_decisions,,html-keyboard-response,476,708849,0.0-631.0,0,0,RTY50,,0.412,,,75.0,,,,36.0,22.0,25.0,,,50.0,50.0,Klina1.jpg,Dekob1.jpg,1.0,0.0,25.0,22.0,,,,,,,,5.0,9.0,0.0,0.0,1.0,,,,,,,,,V1,final_decisions
477,,choice_confirmation,,html-keyboard-response,477,709352,0.0-632.0-0.0,0,0,RTY50,,,,,,,,,36.0,22.0,25.0,,,,,,,,,,,,,,,,,,,,,,,,,,,,,,,V1,final_decisions
478,,fixation,,html-keyboard-response,478,710360,0.0-635.0,0,0,RTY50,,,,,,,,,,,,,,,,,,,,,,,,,,,,,,,,,,,,,,,,,,V1,final_decisions
479,,final_decisions,,html-keyboard-response,479,710538,0.0-636.0,0,0,RTY50,,0.177,,,68.0,,,,37.0,2.0,0.0,,,50.0,50.0,Dekb1n.jpg,Monb1n.jpg,1.0,1.0,2.0,0.0,,,,,,,,6.0,3.0,0.0,1.0,1.0,,,,,,,,,V1,final_decisions
480,,choice_confirmation,,html-keyboard-response,480,711043,0.0-637.0-0.0,0,0,RTY50,,,,,,,,,37.0,2.0,0.0,,,,,,,,,,,,,,,,,,,,,,,,,,,,,,,V1,final_decisions
481,,fixation,,html-keyboard-response,481,712048,0.0-640.0,0,0,RTY50,,,,,,,,,,,,,,,,,,,,,,,,,,,,,,,,,,,,,,,,,,V1,final_decisions
482,,final_decisions,,html-keyboard-response,482,712195,0.0-641.0,0,0,RTY50,,0.143,,,68.0,,,,38.0,5.0,59.0,,,50.0,50.0,Pica1n.jpg,Macka1.jpg,1.0,1.0,5.0,59.0,,,,,,,,11.0,4.0,1.0,1.0,1.0,,,,,,,,,V1,final_decisions
483,,choice_confirmation,,html-keyboard-response,483,712699,0.0-642.0-0.0,0,0,RTY50,,,,,,,,,38.0,5.0,59.0,,,,,,,,,,,,,,,,,,,,,,,,,,,,,,,V1,final_decisions
484,,fixation,,html-keyboard-response,484,713704,0.0-645.0,0,0,RTY50,,,,,,,,,,,,,,,,,,,,,,,,,,,,,,,,,,,,,,,,,,V1,final_decisions
485,,final_decisions,,html-keyboard-response,485,713876,0.0-646.0,0,0,RTY50,,0.169,,,68.0,,,,39.0,29.0,25.0,,,50.0,50.0,Klinb1.jpg,Dekob1.jpg,1.0,1.0,29.0,25.0,,,,,,,,7.0,9.0,0.0,0.0,0.0,,,,,,,,,V1,final_decisions
486,,choice_confirmation,,html-keyboard-response,486,714379,0.0-647.0-0.0,0,0,RTY50,,,,,,,,,39.0,29.0,25.0,,,,,,,,,,,,,,,,,,,,,,,,,,,,,,,V1,final_decisions
487,,fixation,,html-keyboard-response,487,715384,0.0-650.0,0,0,RTY50,,,,,,,,,,,,,,,,,,,,,,,,,,,,,,,,,,,,,,,,,,V1,final_decisions
488,,final_decisions,,html-keyboard-response,488,715507,0.0-651.0,0,0,RTY50,,0.12,,,68.0,,,,40.0,51.0,59.0,,,50.0,50.0,Lewic1.jpg,Macka1.jpg,1.0,1.0,51.0,59.0,,,,,,,,6.0,4.0,1.0,1.0,1.0,,,,,,,,,V1,final_decisions
489,,choice_confirmation,,html-keyboard-response,489,716011,0.0-652.0-0.0,0,0,RTY50,,,,,,,,,40.0,51.0,59.0,,,,,,,,,,,,,,,,,,,,,,,,,,,,,,,V1,final_decisions
490,,fixation,,html-keyboard-response,490,717016,0.0-655.0,0,0,RTY50,,,,,,,,,,,,,,,,,,,,,,,,,,,,,,,,,,,,,,,,,,V1,final_decisions
491,,final_decisions,,html-keyboard-response,491,717088,0.0-656.0,0,0,RTY50,,0.07,,,68.0,,,,41.0,63.0,0.0,,,50.0,50.0,Lewia1.jpg,Monb1n.jpg,1.0,1.0,63.0,0.0,,,,,,,,1.0,3.0,0.0,1.0,1.0,,,,,,,,,V1,final_decisions
492,,choice_confirmation,,html-keyboard-response,492,717592,0.0-657.0-0.0,0,0,RTY50,,,,,,,,,41.0,63.0,0.0,,,,,,,,,,,,,,,,,,,,,,,,,,,,,,,V1,final_decisions
493,,fixation,,html-keyboard-response,493,718598,0.0-660.0,0,0,RTY50,,,,,,,,,,,,,,,,,,,,,,,,,,,,,,,,,,,,,,,,,,V1,final_decisions
494,,final_decisions,,html-keyboard-response,494,718785,0.0-661.0,0,0,RTY50,,0.185,,,68.0,,,,42.0,29.0,47.0,,,50.0,50.0,Klinb1.jpg,Vina1n.jpg,1.0,1.0,29.0,47.0,,,,,,,,7.0,11.0,0.0,0.0,0.0,,,,,,,,,V1,final_decisions
495,,choice_confirmation,,html-keyboard-response,495,719288,0.0-662.0-0.0,0,0,RTY50,,,,,,,,,42.0,29.0,47.0,,,,,,,,,,,,,,,,,,,,,,,,,,,,,,,V1,final_decisions
496,,fixation,,html-keyboard-response,496,720294,0.0-665.0,0,0,RTY50,,,,,,,,,,,,,,,,,,,,,,,,,,,,,,,,,,,,,,,,,,V1,final_decisions
497,,final_decisions,,html-keyboard-response,497,720465,0.0-666.0,0,0,RTY50,,0.169,,,68.0,,,,43.0,16.0,5.0,,,50.0,50.0,Vincc1.jpg,Pica1n.jpg,1.0,1.0,16.0,5.0,,,,,,,,2.0,11.0,1.0,0.0,0.0,,,,,,,,,V1,final_decisions
498,,choice_confirmation,,html-keyboard-response,498,720970,0.0-667.0-0.0,0,0,RTY50,,,,,,,,,43.0,16.0,5.0,,,,,,,,,,,,,,,,,,,,,,,,,,,,,,,V1,final_decisions
499,,fixation,,html-keyboard-response,499,721976,0.0-670.0,0,0,RTY50,,,,,,,,,,,,,,,,,,,,,,,,,,,,,,,,,,,,,,,,,,V1,final_decisions
500,,final_decisions,,html-keyboard-response,500,722229,0.0-671.0,0,0,RTY50,,0.251,,,68.0,,,,44.0,14.0,7.0,,,50.0,50.0,Grib1n.jpg,Macb1n.jpg,1.0,1.0,14.0,7.0,,,,,,,,0.0,10.0,0.0,0.0,0.0,,,,,,,,,V1,final_decisions
501,,choice_confirmation,,html-keyboard-response,501,722733,0.0-672.0-0.0,0,0,RTY50,,,,,,,,,44.0,14.0,7.0,,,,,,,,,,,,,,,,,,,,,,,,,,,,,,,V1,final_decisions
502,,fixation,,html-keyboard-response,502,723739,0.0-675.0,0,0,RTY50,,,,,,,,,,,,,,,,,,,,,,,,,,,,,,,,,,,,,,,,,,V1,final_decisions
503,,final_decisions,,html-keyboard-response,503,723820,0.0-676.0,0,0,RTY50,,0.078,,,68.0,,,,45.0,0.0,25.0,,,50.0,50.0,Monb1n.jpg,Dekob1.jpg,1.0,1.0,0.0,25.0,,,,,,,,3.0,9.0,0.0,0.0,0.0,,,,,,,,,V1,final_decisions
504,,choice_confirmation,,html-keyboard-response,504,724322,0.0-677.0-0.0,0,0,RTY50,,,,,,,,,45.0,0.0,25.0,,,,,,,,,,,,,,,,,,,,,,,,,,,,,,,V1,final_decisions
505,,fixation,,html-keyboard-response,505,725328,0.0-680.0,0,0,RTY50,,,,,,,,,,,,,,,,,,,,,,,,,,,,,,,,,,,,,,,,,,V1,final_decisions
506,,final_decisions,,html-keyboard-response,506,725834,0.0-681.0,0,0,RTY50,,0.503,,,68.0,,,,46.0,14.0,63.0,,,50.0,50.0,Grib1n.jpg,Lewia1.jpg,1.0,1.0,14.0,63.0,,,,,,,,0.0,1.0,0.0,0.0,0.0,,,,,,,,,V1,final_decisions
507,,choice_confirmation,,html-keyboard-response,507,726338,0.0-682.0-0.0,0,0,RTY50,,,,,,,,,46.0,14.0,63.0,,,,,,,,,,,,,,,,,,,,,,,,,,,,,,,V1,final_decisions
508,,fixation,,html-keyboard-response,508,727344,0.0-685.0,0,0,RTY50,,,,,,,,,,,,,,,,,,,,,,,,,,,,,,,,,,,,,,,,,,V1,final_decisions
509,,final_decisions,,html-keyboard-response,509,727677,0.0-686.0,0,0,RTY50,,0.331,,,68.0,,,,47.0,52.0,59.0,,,50.0,50.0,Dekoa1.jpg,Macka1.jpg,1.0,1.0,52.0,59.0,,,,,,,,9.0,4.0,1.0,1.0,1.0,,,,,,,,,V1,final_decisions
510,,choice_confirmation,,html-keyboard-response,510,728182,0.0-687.0-0.0,0,0,RTY50,,,,,,,,,47.0,52.0,59.0,,,,,,,,,,,,,,,,,,,,,,,,,,,,,,,V1,final_decisions
511,,fixation,,html-keyboard-response,511,729187,0.0-690.0,0,0,RTY50,,,,,,,,,,,,,,,,,,,,,,,,,,,,,,,,,,,,,,,,,,V1,final_decisions
512,,final_decisions,,html-keyboard-response,512,729452,0.0-691.0,0,0,RTY50,,0.261,,,68.0,,,,48.0,50.0,25.0,,,50.0,50.0,Klic1n.jpg,Dekob1.jpg,1.0,1.0,50.0,25.0,,,,,,,,2.0,9.0,0.0,0.0,0.0,,,,,,,,,V1,final_decisions
513,,choice_confirmation,,html-keyboard-response,513,729955,0.0-692.0-0.0,0,0,RTY50,,,,,,,,,48.0,50.0,25.0,,,,,,,,,,,,,,,,,,,,,,,,,,,,,,,V1,final_decisions
514,,fixation,,html-keyboard-response,514,730960,0.0-695.0,0,0,RTY50,,,,,,,,,,,,,,,,,,,,,,,,,,,,,,,,,,,,,,,,,,V1,final_decisions
515,,final_decisions,,html-keyboard-response,515,731563,0.0-696.0,0,0,RTY50,,0.6,,,68.0,,,,49.0,25.0,8.0,,,50.0,50.0,Dekob1.jpg,Picd1n.jpg,1.0,1.0,25.0,8.0,,,,,,,,9.0,4.0,0.0,1.0,1.0,,,,,,,,,V1,final_decisions
516,,choice_confirmation,,html-keyboard-response,516,732069,0.0-697.0-0.0,0,0,RTY50,,,,,,,,,49.0,25.0,8.0,,,,,,,,,,,,,,,,,,,,,,,,,,,,,,,V1,final_decisions
517,,fixation,,html-keyboard-response,517,733074,0.0-700.0,0,0,RTY50,,,,,,,,,,,,,,,,,,,,,,,,,,,,,,,,,,,,,,,,,,V1,final_decisions
518,,final_decisions,,html-keyboard-response,518,733464,0.0-701.0,0,0,RTY50,,0.387,,,68.0,,,,50.0,50.0,2.0,,,50.0,50.0,Klic1n.jpg,Dekb1n.jpg,1.0,1.0,50.0,2.0,,,,,,,,2.0,6.0,0.0,0.0,0.0,,,,,,,,,V1,final_decisions
519,,choice_confirmation,,html-keyboard-response,519,733968,0.0-702.0-0.0,0,0,RTY50,,,,,,,,,50.0,50.0,2.0,,,,,,,,,,,,,,,,,,,,,,,,,,,,,,,V1,final_decisions
520,,fixation,,html-keyboard-response,520,734973,0.0-705.0,0,0,RTY50,,,,,,,,,,,,,,,,,,,,,,,,,,,,,,,,,,,,,,,,,,V1,final_decisions
521,,final_decisions,,html-keyboard-response,521,735263,0.0-706.0,0,0,RTY50,,0.287,,,68.0,,,,51.0,8.0,28.0,,,50.0,50.0,Picd1n.jpg,Pice1n.jpg,1.0,1.0,8.0,28.0,,,,,,,,4.0,8.0,0.0,0.0,0.0,,,,,,,,,V1,final_decisions
522,,choice_confirmation,,html-keyboard-response,522,735765,0.0-707.0-0.0,0,0,RTY50,,,,,,,,,51.0,8.0,28.0,,,,,,,,,,,,,,,,,,,,,,,,,,,,,,,V1,final_decisions
523,,fixation,,html-keyboard-response,523,736770,0.0-710.0,0,0,RTY50,,,,,,,,,,,,,,,,,,,,,,,,,,,,,,,,,,,,,,,,,,V1,final_decisions
524,,final_decisions,,html-keyboard-response,524,737089,0.0-711.0,0,0,RTY50,,0.315,,,68.0,,,,52.0,47.0,8.0,,,50.0,50.0,Vina1n.jpg,Picd1n.jpg,1.0,1.0,47.0,8.0,,,,,,,,11.0,4.0,0.0,1.0,1.0,,,,,,,,,V1,final_decisions
525,,choice_confirmation,,html-keyboard-response,525,737592,0.0-712.0-0.0,0,0,RTY50,,,,,,,,,52.0,47.0,8.0,,,,,,,,,,,,,,,,,,,,,,,,,,,,,,,V1,final_decisions
526,,fixation,,html-keyboard-response,526,738597,0.0-715.0,0,0,RTY50,,,,,,,,,,,,,,,,,,,,,,,,,,,,,,,,,,,,,,,,,,V1,final_decisions
527,,final_decisions,,html-keyboard-response,527,738751,0.0-716.0,0,0,RTY50,,0.151,,,68.0,,,,53.0,51.0,20.0,,,50.0,50.0,Lewic1.jpg,Picb1n.jpg,1.0,1.0,51.0,20.0,,,,,,,,6.0,0.0,1.0,1.0,1.0,,,,,,,,,V1,final_decisions
528,,choice_confirmation,,html-keyboard-response,528,739254,0.0-717.0-0.0,0,0,RTY50,,,,,,,,,53.0,51.0,20.0,,,,,,,,,,,,,,,,,,,,,,,,,,,,,,,V1,final_decisions
529,,fixation,,html-keyboard-response,529,740258,0.0-720.0,0,0,RTY50,,,,,,,,,,,,,,,,,,,,,,,,,,,,,,,,,,,,,,,,,,V1,final_decisions
530,,final_decisions,,html-keyboard-response,530,740992,0.0-721.0,0,0,RTY50,,0.732,,,68.0,,,,54.0,51.0,64.0,,,50.0,50.0,Lewic1.jpg,Vincb1.jpg,1.0,1.0,51.0,64.0,,,,,,,,6.0,3.0,1.0,1.0,1.0,,,,,,,,,V1,final_decisions
531,,choice_confirmation,,html-keyboard-response,531,741496,0.0-722.0-0.0,0,0,RTY50,,,,,,,,,54.0,51.0,64.0,,,,,,,,,,,,,,,,,,,,,,,,,,,,,,,V1,final_decisions
532,,fixation,,html-keyboard-response,532,742503,0.0-725.0,0,0,RTY50,,,,,,,,,,,,,,,,,,,,,,,,,,,,,,,,,,,,,,,,,,V1,final_decisions
533,,final_decisions,,html-keyboard-response,533,742920,0.0-726.0,0,0,RTY50,,0.414,,,68.0,,,,55.0,23.0,64.0,,,50.0,50.0,Rohlb1.jpg,Vincb1.jpg,1.0,1.0,23.0,64.0,,,,,,,,10.0,3.0,1.0,1.0,1.0,,,,,,,,,V1,final_decisions
534,,choice_confirmation,,html-keyboard-response,534,743424,0.0-727.0-0.0,0,0,RTY50,,,,,,,,,55.0,23.0,64.0,,,,,,,,,,,,,,,,,,,,,,,,,,,,,,,V1,final_decisions
535,,fixation,,html-keyboard-response,535,744430,0.0-730.0,0,0,RTY50,,,,,,,,,,,,,,,,,,,,,,,,,,,,,,,,,,,,,,,,,,V1,final_decisions
536,,final_decisions,,html-keyboard-response,536,744716,0.0-731.0,0,0,RTY50,,0.284,,,68.0,,,,56.0,20.0,23.0,,,50.0,50.0,Picb1n.jpg,Rohlb1.jpg,1.0,1.0,20.0,23.0,,,,,,,,0.0,10.0,1.0,0.0,0.0,,,,,,,,,V1,final_decisions
537,,choice_confirmation,,html-keyboard-response,537,745220,0.0-732.0-0.0,0,0,RTY50,,,,,,,,,56.0,20.0,23.0,,,,,,,,,,,,,,,,,,,,,,,,,,,,,,,V1,final_decisions
538,,fixation,,html-keyboard-response,538,746227,0.0-735.0,0,0,RTY50,,,,,,,,,,,,,,,,,,,,,,,,,,,,,,,,,,,,,,,,,,V1,final_decisions
539,,final_decisions,,html-keyboard-response,539,746403,0.0-736.0,0,0,RTY50,,0.174,,,68.0,,,,57.0,50.0,7.0,,,50.0,50.0,Klic1n.jpg,Macb1n.jpg,1.0,1.0,50.0,7.0,,,,,,,,2.0,10.0,0.0,0.0,0.0,,,,,,,,,V1,final_decisions
540,,choice_confirmation,,html-keyboard-response,540,746907,0.0-737.0-0.0,0,0,RTY50,,,,,,,,,57.0,50.0,7.0,,,,,,,,,,,,,,,,,,,,,,,,,,,,,,,V1,final_decisions
541,,fixation,,html-keyboard-response,541,747911,0.0-740.0,0,0,RTY50,,,,,,,,,,,,,,,,,,,,,,,,,,,,,,,,,,,,,,,,,,V1,final_decisions
542,,final_decisions,,html-keyboard-response,542,747972,0.0-741.0,0,0,RTY50,,0.058,,,68.0,,,,58.0,48.0,23.0,,,50.0,50.0,Maca1n.jpg,Rohlb1.jpg,1.0,1.0,48.0,23.0,,,,,,,,5.0,10.0,1.0,0.0,0.0,,,,,,,,,V1,final_decisions
543,,choice_confirmation,,html-keyboard-response,543,748475,0.0-742.0-0.0,0,0,RTY50,,,,,,,,,58.0,48.0,23.0,,,,,,,,,,,,,,,,,,,,,,,,,,,,,,,V1,final_decisions
544,,fixation,,html-keyboard-response,544,749480,0.0-745.0,0,0,RTY50,,,,,,,,,,,,,,,,,,,,,,,,,,,,,,,,,,,,,,,,,,V1,final_decisions
545,,final_decisions,,html-keyboard-response,545,749930,0.0-746.0,0,0,RTY50,,0.447,,,68.0,,,,59.0,61.0,64.0,,,50.0,50.0,Grigb1.jpg,Vincb1.jpg,1.0,1.0,61.0,64.0,,,,,,,,8.0,3.0,1.0,1.0,1.0,,,,,,,,,V1,final_decisions
546,,choice_confirmation,,html-keyboard-response,546,750432,0.0-747.0-0.0,0,0,RTY50,,,,,,,,,59.0,61.0,64.0,,,,,,,,,,,,,,,,,,,,,,,,,,,,,,,V1,final_decisions
547,,fixation,,html-keyboard-response,547,751438,0.0-750.0,0,0,RTY50,,,,,,,,,,,,,,,,,,,,,,,,,,,,,,,,,,,,,,,,,,V1,final_decisions
548,,final_decisions,,html-keyboard-response,548,751788,0.0-751.0,0,0,RTY50,,0.348,,,68.0,,,,60.0,7.0,22.0,,,50.0,50.0,Macb1n.jpg,Klina1.jpg,1.0,1.0,7.0,22.0,,,,,,,,10.0,5.0,0.0,1.0,1.0,,,,,,,,,V1,final_decisions
549,,choice_confirmation,,html-keyboard-response,549,752291,0.0-752.0-0.0,0,0,RTY50,,,,,,,,,60.0,7.0,22.0,,,,,,,,,,,,,,,,,,,,,,,,,,,,,,,V1,final_decisions
550,,fixation,,html-keyboard-response,550,753296,0.0-755.0,0,0,RTY50,,,,,,,,,,,,,,,,,,,,,,,,,,,,,,,,,,,,,,,,,,V1,final_decisions
551,,final_decisions,,html-keyboard-response,551,753525,0.0-756.0,0,0,RTY50,,0.226,,,68.0,,,,61.0,28.0,0.0,,,50.0,50.0,Pice1n.jpg,Monb1n.jpg,1.0,1.0,28.0,0.0,,,,,,,,8.0,3.0,0.0,1.0,1.0,,,,,,,,,V1,final_decisions
552,,choice_confirmation,,html-keyboard-response,552,754030,0.0-757.0-0.0,0,0,RTY50,,,,,,,,,61.0,28.0,0.0,,,,,,,,,,,,,,,,,,,,,,,,,,,,,,,V1,final_decisions
553,,fixation,,html-keyboard-response,553,755036,0.0-760.0,0,0,RTY50,,,,,,,,,,,,,,,,,,,,,,,,,,,,,,,,,,,,,,,,,,V1,final_decisions
554,,final_decisions,,html-keyboard-response,554,756233,0.0-761.0,0,0,RTY50,,1.194,,,68.0,,,,62.0,20.0,5.0,,,50.0,50.0,Picb1n.jpg,Pica1n.jpg,1.0,1.0,20.0,5.0,,,,,,,,0.0,11.0,1.0,0.0,0.0,,,,,,,,,V1,final_decisions
555,,choice_confirmation,,html-keyboard-response,555,756736,0.0-762.0-0.0,0,0,RTY50,,,,,,,,,62.0,20.0,5.0,,,,,,,,,,,,,,,,,,,,,,,,,,,,,,,V1,final_decisions
556,,fixation,,html-keyboard-response,556,757742,0.0-765.0,0,0,RTY50,,,,,,,,,,,,,,,,,,,,,,,,,,,,,,,,,,,,,,,,,,V1,final_decisions
557,,final_decisions,,html-keyboard-response,557,758014,0.0-766.0,0,0,RTY50,,0.27,,,68.0,,,,63.0,25.0,14.0,,,50.0,50.0,Dekob1.jpg,Grib1n.jpg,1.0,1.0,25.0,14.0,,,,,,,,9.0,0.0,0.0,1.0,1.0,,,,,,,,,V1,final_decisions
558,,choice_confirmation,,html-keyboard-response,558,758518,0.0-767.0-0.0,0,0,RTY50,,,,,,,,,63.0,25.0,14.0,,,,,,,,,,,,,,,,,,,,,,,,,,,,,,,V1,final_decisions
559,,fixation,,html-keyboard-response,559,759523,0.0-770.0,0,0,RTY50,,,,,,,,,,,,,,,,,,,,,,,,,,,,,,,,,,,,,,,,,,V1,final_decisions
560,,final_decisions,,html-keyboard-response,560,760174,0.0-771.0,0,0,RTY50,,0.648,,,68.0,,,,64.0,41.0,23.0,,,50.0,50.0,Picae1.jpg,Rohlb1.jpg,1.0,1.0,41.0,23.0,,,,,,,,7.0,10.0,1.0,0.0,0.0,,,,,,,,,V1,final_decisions
561,,choice_confirmation,,html-keyboard-response,561,760678,0.0-772.0-0.0,0,0,RTY50,,,,,,,,,64.0,41.0,23.0,,,,,,,,,,,,,,,,,,,,,,,,,,,,,,,V1,final_decisions
562,,fixation,,html-keyboard-response,562,761683,0.0-775.0,0,0,RTY50,,,,,,,,,,,,,,,,,,,,,,,,,,,,,,,,,,,,,,,,,,V1,final_decisions
563,,final_decisions,,html-keyboard-response,563,762274,0.0-776.0,0,0,RTY50,,0.589,,,68.0,,,,65.0,64.0,52.0,,,50.0,50.0,Vincb1.jpg,Dekoa1.jpg,1.0,1.0,64.0,52.0,,,,,,,,3.0,9.0,1.0,0.0,0.0,,,,,,,,,V1,final_decisions
564,,choice_confirmation,,html-keyboard-response,564,762779,0.0-777.0-0.0,0,0,RTY50,,,,,,,,,65.0,64.0,52.0,,,,,,,,,,,,,,,,,,,,,,,,,,,,,,,V1,final_decisions
565,,fixation,,html-keyboard-response,565,763786,0.0-780.0,0,0,RTY50,,,,,,,,,,,,,,,,,,,,,,,,,,,,,,,,,,,,,,,,,,V1,final_decisions
566,,final_decisions,,html-keyboard-response,566,764682,0.0-781.0,0,0,RTY50,,0.893,,,68.0,,,,66.0,41.0,51.0,,,50.0,50.0,Picae1.jpg,Lewic1.jpg,1.0,1.0,41.0,51.0,,,,,,,,7.0,6.0,1.0,0.0,0.0,,,,,,,,,V1,final_decisions
567,,choice_confirmation,,html-keyboard-response,567,765186,0.0-782.0-0.0,0,0,RTY50,,,,,,,,,66.0,41.0,51.0,,,,,,,,,,,,,,,,,,,,,,,,,,,,,,,V1,final_decisions
568,,fixation,,html-keyboard-response,568,766192,0.0-785.0,0,0,RTY50,,,,,,,,,,,,,,,,,,,,,,,,,,,,,,,,,,,,,,,,,,V1,final_decisions
569,,final_decisions,,html-keyboard-response,569,766665,0.0-786.0,0,0,RTY50,,0.47,,,68.0,,,,67.0,7.0,0.0,,,50.0,50.0,Macb1n.jpg,Monb1n.jpg,1.0,1.0,7.0,0.0,,,,,,,,10.0,3.0,0.0,1.0,1.0,,,,,,,,,V1,final_decisions
570,,choice_confirmation,,html-keyboard-response,570,767169,0.0-787.0-0.0,0,0,RTY50,,,,,,,,,67.0,7.0,0.0,,,,,,,,,,,,,,,,,,,,,,,,,,,,,,,V1,final_decisions
571,,fixation,,html-keyboard-response,571,768174,0.0-790.0,0,0,RTY50,,,,,,,,,,,,,,,,,,,,,,,,,,,,,,,,,,,,,,,,,,V1,final_decisions
572,,final_decisions,,html-keyboard-response,572,769068,0.0-791.0,0,0,RTY50,,0.892,,,68.0,,,,68.0,61.0,20.0,,,50.0,50.0,Grigb1.jpg,Picb1n.jpg,1.0,1.0,61.0,20.0,,,,,,,,8.0,0.0,1.0,1.0,1.0,,,,,,,,,V1,final_decisions
573,,choice_confirmation,,html-keyboard-response,573,769573,0.0-792.0-0.0,0,0,RTY50,,,,,,,,,68.0,61.0,20.0,,,,,,,,,,,,,,,,,,,,,,,,,,,,,,,V1,final_decisions
574,,fixation,,html-keyboard-response,574,770579,0.0-795.0,0,0,RTY50,,,,,,,,,,,,,,,,,,,,,,,,,,,,,,,,,,,,,,,,,,V1,final_decisions
575,,final_decisions,,html-keyboard-response,575,771099,0.0-796.0,0,0,RTY50,,0.518,,,68.0,,,,69.0,16.0,51.0,,,50.0,50.0,Vincc1.jpg,Lewic1.jpg,1.0,1.0,16.0,51.0,,,,,,,,2.0,6.0,1.0,0.0,0.0,,,,,,,,,V1,final_decisions
576,,choice_confirmation,,html-keyboard-response,576,771602,0.0-797.0-0.0,0,0,RTY50,,,,,,,,,69.0,16.0,51.0,,,,,,,,,,,,,,,,,,,,,,,,,,,,,,,V1,final_decisions
577,,fixation,,html-keyboard-response,577,772608,0.0-800.0,0,0,RTY50,,,,,,,,,,,,,,,,,,,,,,,,,,,,,,,,,,,,,,,,,,V1,final_decisions
578,,final_decisions,,html-keyboard-response,578,772989,0.0-801.0,0,0,RTY50,,0.378,,,68.0,,,,70.0,48.0,60.0,,,50.0,50.0,Maca1n.jpg,Kupc1n.jpg,1.0,1.0,48.0,60.0,,,,,,,,5.0,1.0,1.0,0.0,0.0,,,,,,,,,V1,final_decisions
579,,choice_confirmation,,html-keyboard-response,579,773494,0.0-802.0-0.0,0,0,RTY50,,,,,,,,,70.0,48.0,60.0,,,,,,,,,,,,,,,,,,,,,,,,,,,,,,,V1,final_decisions
580,,fixation,,html-keyboard-response,580,774501,0.0-805.0,0,0,RTY50,,,,,,,,,,,,,,,,,,,,,,,,,,,,,,,,,,,,,,,,,,V1,final_decisions
581,,final_decisions,,html-keyboard-response,581,774560,0.0-806.0,0,0,RTY50,,0.057,,,68.0,,,,71.0,61.0,59.0,,,50.0,50.0,Grigb1.jpg,Macka1.jpg,1.0,1.0,61.0,59.0,,,,,,,,8.0,4.0,1.0,1.0,1.0,,,,,,,,,V1,final_decisions
582,,choice_confirmation,,html-keyboard-response,582,775064,0.0-807.0-0.0,0,0,RTY50,,,,,,,,,71.0,61.0,59.0,,,,,,,,,,,,,,,,,,,,,,,,,,,,,,,V1,final_decisions
583,,block_over,,html-keyboard-response,583,783042,0.0-809.0-0.0,0,0,RTY50,,7.975,,,78.0,,,,,,,,,,,,,,,,,,,,,,,,,,,,,,,,,,,,,V1,final_decisions
584,,fixation,,html-keyboard-response,584,784046,0.0-810.0,0,0,RTY50,,,,,,,,,,,,,,,,,,,,,,,,,,,,,,,,,,,,,,,,,,V1,final_decisions
585,,final_decisions,,html-keyboard-response,585,784714,0.0-811.0,0,0,RTY50,,0.666,,,75.0,,,,72.0,50.0,7.0,,,50.0,50.0,Klic1n.jpg,Macb1n.jpg,2.0,0.0,7.0,50.0,,,,,,,,2.0,10.0,0.0,0.0,1.0,,,,,,,,,V1,final_decisions
586,,choice_confirmation,,html-keyboard-response,586,785219,0.0-812.0-0.0,0,0,RTY50,,,,,,,,,72.0,50.0,7.0,,,,,,,,,,,,,,,,,,,,,,,,,,,,,,,V1,final_decisions
587,,fixation,,html-keyboard-response,587,786224,0.0-815.0,0,0,RTY50,,,,,,,,,,,,,,,,,,,,,,,,,,,,,,,,,,,,,,,,,,V1,final_decisions
588,,final_decisions,,html-keyboard-response,588,787704,0.0-816.0,0,0,RTY50,,1.477,,,75.0,,,,73.0,14.0,25.0,,,50.0,50.0,Grib1n.jpg,Dekob1.jpg,2.0,0.0,25.0,14.0,,,,,,,,0.0,9.0,0.0,0.0,1.0,,,,,,,,,V1,final_decisions
589,,choice_confirmation,,html-keyboard-response,589,788208,0.0-817.0-0.0,0,0,RTY50,,,,,,,,,73.0,14.0,25.0,,,,,,,,,,,,,,,,,,,,,,,,,,,,,,,V1,final_decisions
590,,fixation,,html-keyboard-response,590,789213,0.0-820.0,0,0,RTY50,,,,,,,,,,,,,,,,,,,,,,,,,,,,,,,,,,,,,,,,,,V1,final_decisions
591,,final_decisions,,html-keyboard-response,591,789887,0.0-821.0,0,0,RTY50,,0.67,,,75.0,,,,74.0,5.0,16.0,,,50.0,50.0,Pica1n.jpg,Vincc1.jpg,2.0,0.0,16.0,5.0,,,,,,,,11.0,2.0,1.0,1.0,0.0,,,,,,,,,V1,final_decisions
592,,choice_confirmation,,html-keyboard-response,592,790389,0.0-822.0-0.0,0,0,RTY50,,,,,,,,,74.0,5.0,16.0,,,,,,,,,,,,,,,,,,,,,,,,,,,,,,,V1,final_decisions
593,,fixation,,html-keyboard-response,593,791395,0.0-825.0,0,0,RTY50,,,,,,,,,,,,,,,,,,,,,,,,,,,,,,,,,,,,,,,,,,V1,final_decisions
594,,final_decisions,,html-keyboard-response,594,791955,0.0-826.0,0,0,RTY50,,0.558,,,75.0,,,,75.0,23.0,48.0,,,50.0,50.0,Rohlb1.jpg,Maca1n.jpg,2.0,0.0,48.0,23.0,,,,,,,,10.0,5.0,1.0,1.0,0.0,,,,,,,,,V1,final_decisions
595,,choice_confirmation,,html-keyboard-response,595,792459,0.0-827.0-0.0,0,0,RTY50,,,,,,,,,75.0,23.0,48.0,,,,,,,,,,,,,,,,,,,,,,,,,,,,,,,V1,final_decisions
596,,fixation,,html-keyboard-response,596,793464,0.0-830.0,0,0,RTY50,,,,,,,,,,,,,,,,,,,,,,,,,,,,,,,,,,,,,,,,,,V1,final_decisions
597,,final_decisions,,html-keyboard-response,597,794444,0.0-831.0,0,0,RTY50,,0.978,,,75.0,,,,76.0,2.0,0.0,,,50.0,50.0,Dekb1n.jpg,Monb1n.jpg,2.0,0.0,0.0,2.0,,,,,,,,6.0,3.0,0.0,1.0,0.0,,,,,,,,,V1,final_decisions
598,,choice_confirmation,,html-keyboard-response,598,794946,0.0-832.0-0.0,0,0,RTY50,,,,,,,,,76.0,2.0,0.0,,,,,,,,,,,,,,,,,,,,,,,,,,,,,,,V1,final_decisions
599,,fixation,,html-keyboard-response,599,795952,0.0-835.0,0,0,RTY50,,,,,,,,,,,,,,,,,,,,,,,,,,,,,,,,,,,,,,,,,,V1,final_decisions
600,,final_decisions,,html-keyboard-response,600,796553,0.0-836.0,0,0,RTY50,,0.599,,,75.0,,,,77.0,25.0,22.0,,,50.0,50.0,Dekob1.jpg,Klina1.jpg,2.0,0.0,22.0,25.0,,,,,,,,9.0,5.0,0.0,1.0,0.0,,,,,,,,,V1,final_decisions
601,,choice_confirmation,,html-keyboard-response,601,797056,0.0-837.0-0.0,0,0,RTY50,,,,,,,,,77.0,25.0,22.0,,,,,,,,,,,,,,,,,,,,,,,,,,,,,,,V1,final_decisions
602,,fixation,,html-keyboard-response,602,798061,0.0-840.0,0,0,RTY50,,,,,,,,,,,,,,,,,,,,,,,,,,,,,,,,,,,,,,,,,,V1,final_decisions
603,,final_decisions,,html-keyboard-response,603,798765,0.0-841.0,0,0,RTY50,,0.702,,,75.0,,,,78.0,48.0,61.0,,,50.0,50.0,Maca1n.jpg,Grigb1.jpg,2.0,0.0,61.0,48.0,,,,,,,,5.0,8.0,1.0,0.0,1.0,,,,,,,,,V1,final_decisions
604,,choice_confirmation,,html-keyboard-response,604,799269,0.0-842.0-0.0,0,0,RTY50,,,,,,,,,78.0,48.0,61.0,,,,,,,,,,,,,,,,,,,,,,,,,,,,,,,V1,final_decisions
605,,fixation,,html-keyboard-response,605,800274,0.0-845.0,0,0,RTY50,,,,,,,,,,,,,,,,,,,,,,,,,,,,,,,,,,,,,,,,,,V1,final_decisions
606,,final_decisions,,html-keyboard-response,606,800667,0.0-846.0,0,0,RTY50,,0.391,,,75.0,,,,79.0,0.0,7.0,,,50.0,50.0,Monb1n.jpg,Macb1n.jpg,2.0,0.0,7.0,0.0,,,,,,,,3.0,10.0,0.0,0.0,1.0,,,,,,,,,V1,final_decisions
607,,choice_confirmation,,html-keyboard-response,607,801171,0.0-847.0-0.0,0,0,RTY50,,,,,,,,,79.0,0.0,7.0,,,,,,,,,,,,,,,,,,,,,,,,,,,,,,,V1,final_decisions
608,,fixation,,html-keyboard-response,608,802179,0.0-850.0,0,0,RTY50,,,,,,,,,,,,,,,,,,,,,,,,,,,,,,,,,,,,,,,,,,V1,final_decisions
609,,final_decisions,,html-keyboard-response,609,804685,0.0-851.0,0,0,RTY50,,,,,,,,,80.0,25.0,0.0,,,50.0,50.0,Dekob1.jpg,Monb1n.jpg,2.0,,,,,,,,,,,9.0,3.0,0.0,1.0,,,,,,,,,,V1,final_decisions
610,,respond_faster,,html-keyboard-response,610,806192,0.0-853.0-0.0,1,0,RTY50,,,,,,,,,,,,,,,,,,,,,,,,,,,,,,,,,,,,,,,,,,V1,final_decisions
611,,fixation,,html-keyboard-response,611,807195,0.0-855.0,0,0,RTY50,,,,,,,,,,,,,,,,,,,,,,,,,,,,,,,,,,,,,,,,,,V1,final_decisions
612,,final_decisions,,html-keyboard-response,612,807249,0.0-856.0,0,0,RTY50,,0.051,,,75.0,,,,81.0,29.0,2.0,,,50.0,50.0,Klinb1.jpg,Dekb1n.jpg,2.0,0.0,2.0,29.0,,,,,,,,7.0,6.0,0.0,0.0,1.0,,,,,,,,,V1,final_decisions
613,,choice_confirmation,,html-keyboard-response,613,807752,0.0-857.0-0.0,0,0,RTY50,,,,,,,,,81.0,29.0,2.0,,,,,,,,,,,,,,,,,,,,,,,,,,,,,,,V1,final_decisions
614,,fixation,,html-keyboard-response,614,808758,0.0-860.0,0,0,RTY50,,,,,,,,,,,,,,,,,,,,,,,,,,,,,,,,,,,,,,,,,,V1,final_decisions
615,,final_decisions,,html-keyboard-response,615,809263,0.0-861.0,0,0,RTY50,,0.501,,,75.0,,,,82.0,14.0,47.0,,,50.0,50.0,Grib1n.jpg,Vina1n.jpg,2.0,0.0,47.0,14.0,,,,,,,,0.0,11.0,0.0,0.0,1.0,,,,,,,,,V1,final_decisions
616,,choice_confirmation,,html-keyboard-response,616,809766,0.0-862.0-0.0,0,0,RTY50,,,,,,,,,82.0,14.0,47.0,,,,,,,,,,,,,,,,,,,,,,,,,,,,,,,V1,final_decisions
617,,fixation,,html-keyboard-response,617,810771,0.0-865.0,0,0,RTY50,,,,,,,,,,,,,,,,,,,,,,,,,,,,,,,,,,,,,,,,,,V1,final_decisions
618,,final_decisions,,html-keyboard-response,618,811572,0.0-866.0,0,0,RTY50,,0.799,,,75.0,,,,83.0,0.0,28.0,,,50.0,50.0,Monb1n.jpg,Pice1n.jpg,2.0,0.0,28.0,0.0,,,,,,,,3.0,8.0,0.0,0.0,1.0,,,,,,,,,V1,final_decisions
619,,choice_confirmation,,html-keyboard-response,619,812075,0.0-867.0-0.0,0,0,RTY50,,,,,,,,,83.0,0.0,28.0,,,,,,,,,,,,,,,,,,,,,,,,,,,,,,,V1,final_decisions
620,,fixation,,html-keyboard-response,620,813080,0.0-870.0,0,0,RTY50,,,,,,,,,,,,,,,,,,,,,,,,,,,,,,,,,,,,,,,,,,V1,final_decisions
621,,final_decisions,,html-keyboard-response,621,813459,0.0-871.0,0,0,RTY50,,0.376,,,75.0,,,,84.0,63.0,14.0,,,50.0,50.0,Lewia1.jpg,Grib1n.jpg,2.0,0.0,14.0,63.0,,,,,,,,1.0,0.0,0.0,1.0,0.0,,,,,,,,,V1,final_decisions
622,,choice_confirmation,,html-keyboard-response,622,813961,0.0-872.0-0.0,0,0,RTY50,,,,,,,,,84.0,63.0,14.0,,,,,,,,,,,,,,,,,,,,,,,,,,,,,,,V1,final_decisions
623,,fixation,,html-keyboard-response,623,814968,0.0-875.0,0,0,RTY50,,,,,,,,,,,,,,,,,,,,,,,,,,,,,,,,,,,,,,,,,,V1,final_decisions
