,version,group,PID,condition,phase,block,trial,stimulus_left,stimulus_right,painting_left,painting_right,rating_left,rating_right,explain_trial,reward_type,left_chosen,chosen_obj,unchosen_obj,rt,zscored_rt,delta_ratings,zcored_rating_left,zcored_rating_right,zscored_delta_ratings
0,V1,d09142021,fX2Ey,1.0,deliberation,1.0,0.0,18.0,29.0,Krab1n.jpg,Klinb1.jpg,44.0,46.0,1.0,1.0,0.0,29.0,18.0,2.387,1.332182982685088,-2.0,-0.45211544208237603,-0.35776091503909757,-0.09435452704327846
1,V1,d09142021,fX2Ey,1.0,deliberation,1.0,1.0,53.0,58.0,Macc1n.jpg,Klinc1.jpg,64.0,59.0,1.0,-1.0,1.0,53.0,58.0,2.455,1.4342416902526256,5.0,0.4914298283504085,0.2555435107422124,0.23588631760819612
2,V1,d09142021,fX2Ey,0.0,deliberation,1.0,2.0,30.0,1.0,Kraa1n.jpg,Monda1.jpg,65.0,55.0,0.0,1.0,1.0,30.0,1.0,2.083,0.8759205253243318,10.0,0.5386070918720477,0.06683445665565546,0.47177263521639223
3,V1,d09142021,fX2Ey,0.0,deliberation,1.0,3.0,60.0,69.0,Kupc1n.jpg,Picad1.jpg,65.0,55.0,0.0,-1.0,1.0,60.0,69.0,3.364,2.7985264722951504,10.0,0.5386070918720477,0.06683445665565546,0.47177263521639223
4,V1,d09142021,fX2Ey,1.0,deliberation,1.0,4.0,38.0,7.0,Krasa1.jpg,Macb1n.jpg,42.0,61.0,1.0,1.0,0.0,7.0,38.0,1.564,0.09697244844856662,-19.0,-0.5464699691256545,0.34989803778549083,-0.8963680069111453
5,V1,d09142021,fX2Ey,0.0,deliberation,1.0,5.0,50.0,11.0,Klic1n.jpg,Clifa1.jpg,66.0,45.0,0.0,-1.0,1.0,50.0,11.0,2.403,1.356196796230391,21.0,0.5857843553936869,-0.4049381785607368,0.9907225339544237
6,V1,d09142021,fX2Ey,1.0,deliberation,1.0,6.0,62.0,21.0,Mona1n.jpg,Kupkc1.jpg,46.0,56.0,1.0,1.0,1.0,62.0,21.0,2.241,1.1130569340841985,-10.0,-0.35776091503909757,0.11401172017729468,-0.47177263521639223
7,V1,d09142021,fX2Ey,1.0,deliberation,1.0,7.0,22.0,47.0,Klina1.jpg,Vina1n.jpg,46.0,64.0,1.0,-1.0,0.0,47.0,22.0,1.268,-0.34728310213953834,-18.0,-0.35776091503909757,0.4914298283504085,-0.8491907433895061
8,V1,d09142021,fX2Ey,1.0,deliberation,1.0,8.0,39.0,34.0,Kupb1n.jpg,Lasb1n.jpg,55.0,43.0,1.0,-1.0,0.0,34.0,39.0,2.591,1.6383591053877011,12.0,0.06683445665565546,-0.49929270560401523,0.5661271622596706
9,V1,d09142021,fX2Ey,0.0,deliberation,1.0,9.0,19.0,54.0,Picc1n.jpg,Rohla1.jpg,55.0,59.0,0.0,1.0,0.0,54.0,19.0,2.206,1.0605267169538481,-4.0,0.06683445665565546,0.2555435107422124,-0.18870905408655692
10,V1,d09142021,fX2Ey,0.0,deliberation,1.0,10.0,63.0,25.0,Lewia1.jpg,Dekob1.jpg,41.0,55.0,0.0,-1.0,0.0,25.0,63.0,2.027,0.7918721779157714,-14.0,-0.5936472326472937,0.06683445665565546,-0.6604816893029491
11,V1,d09142021,fX2Ey,0.0,deliberation,1.0,11.0,66.0,55.0,Vinca1.jpg,Clia1n.jpg,54.0,43.0,0.0,1.0,1.0,66.0,55.0,1.777,0.4166563412704122,11.0,0.019657193134016232,-0.49929270560401523,0.5189498987380314
12,V1,d09142021,fX2Ey,1.0,deliberation,2.0,12.0,18.0,29.0,Krab1n.jpg,Klinb1.jpg,44.0,46.0,0.0,1.0,0.0,29.0,18.0,2.338,1.2586406787025977,-2.0,-0.45211544208237603,-0.35776091503909757,-0.09435452704327846
13,V1,d09142021,fX2Ey,1.0,deliberation,2.0,13.0,53.0,58.0,Macc1n.jpg,Klinc1.jpg,64.0,59.0,0.0,-1.0,1.0,53.0,58.0,1.103,-0.5949255543254752,5.0,0.4914298283504085,0.2555435107422124,0.23588631760819612
14,V1,d09142021,fX2Ey,1.0,deliberation,2.0,14.0,38.0,7.0,Krasa1.jpg,Macb1n.jpg,42.0,61.0,0.0,1.0,0.0,7.0,38.0,1.071,-0.6429531814160813,-19.0,-0.5464699691256545,0.34989803778549083,-0.8963680069111453
15,V1,d09142021,fX2Ey,1.0,deliberation,2.0,15.0,22.0,47.0,Klina1.jpg,Vina1n.jpg,46.0,64.0,0.0,-1.0,0.0,47.0,22.0,0.974,-0.7885369260344804,-18.0,-0.35776091503909757,0.4914298283504085,-0.8491907433895061
16,V1,d09142021,fX2Ey,0.0,deliberation,2.0,16.0,19.0,54.0,Picc1n.jpg,Rohla1.jpg,55.0,59.0,1.0,1.0,0.0,54.0,19.0,0.97,-0.7945403794208062,-4.0,0.06683445665565546,0.2555435107422124,-0.18870905408655692
17,V1,d09142021,fX2Ey,1.0,deliberation,2.0,17.0,39.0,34.0,Kupb1n.jpg,Lasb1n.jpg,55.0,43.0,0.0,-1.0,0.0,34.0,39.0,1.534,0.05194654805112352,12.0,0.06683445665565546,-0.49929270560401523,0.5661271622596706
18,V1,d09142021,fX2Ey,0.0,deliberation,2.0,18.0,66.0,55.0,Vinca1.jpg,Clia1n.jpg,54.0,43.0,1.0,1.0,1.0,66.0,55.0,1.223,-0.4148219527357028,11.0,0.019657193134016232,-0.49929270560401523,0.5189498987380314
19,V1,d09142021,fX2Ey,0.0,deliberation,2.0,19.0,60.0,69.0,Kupc1n.jpg,Picad1.jpg,65.0,55.0,1.0,-1.0,1.0,60.0,69.0,1.38,-0.17918640732241775,10.0,0.5386070918720477,0.06683445665565546,0.47177263521639223
20,V1,d09142021,fX2Ey,0.0,deliberation,2.0,20.0,50.0,11.0,Klic1n.jpg,Clifa1.jpg,66.0,45.0,1.0,-1.0,1.0,50.0,11.0,1.459,-0.06061820294248408,21.0,0.5857843553936869,-0.4049381785607368,0.9907225339544237
21,V1,d09142021,fX2Ey,1.0,deliberation,2.0,21.0,62.0,21.0,Mona1n.jpg,Kupkc1.jpg,46.0,56.0,0.0,1.0,1.0,62.0,21.0,1.437,-0.09363719656727569,-10.0,-0.35776091503909757,0.11401172017729468,-0.47177263521639223
22,V1,d09142021,fX2Ey,0.0,deliberation,2.0,22.0,63.0,25.0,Lewia1.jpg,Dekob1.jpg,41.0,55.0,1.0,-1.0,0.0,25.0,63.0,1.042,-0.6864782184669428,-14.0,-0.5936472326472937,0.06683445665565546,-0.6604816893029491
23,V1,d09142021,fX2Ey,0.0,deliberation,2.0,23.0,30.0,1.0,Kraa1n.jpg,Monda1.jpg,65.0,55.0,1.0,1.0,1.0,30.0,1.0,2.029,0.7948739046089339,10.0,0.5386070918720477,0.06683445665565546,0.47177263521639223
24,V1,d09142021,fX2Ey,1.0,deliberation,3.0,24.0,38.0,7.0,Krasa1.jpg,Macb1n.jpg,42.0,61.0,0.0,1.0,0.0,7.0,38.0,1.336,-0.24522439457200065,-19.0,-0.5464699691256545,0.34989803778549083,-0.8963680069111453
25,V1,d09142021,fX2Ey,0.0,deliberation,3.0,25.0,19.0,54.0,Picc1n.jpg,Rohla1.jpg,55.0,59.0,0.0,1.0,0.0,54.0,19.0,0.934,-0.8485714598977377,-4.0,0.06683445665565546,0.2555435107422124,-0.18870905408655692
26,V1,d09142021,fX2Ey,1.0,deliberation,3.0,26.0,62.0,21.0,Mona1n.jpg,Kupkc1.jpg,46.0,56.0,0.0,1.0,1.0,62.0,21.0,1.042,-0.6864782184669428,-10.0,-0.35776091503909757,0.11401172017729468,-0.47177263521639223
27,V1,d09142021,fX2Ey,1.0,deliberation,3.0,27.0,39.0,34.0,Kupb1n.jpg,Lasb1n.jpg,55.0,43.0,0.0,-1.0,0.0,34.0,39.0,0.728,-1.1577493092935136,12.0,0.06683445665565546,-0.49929270560401523,0.5661271622596706
28,V1,d09142021,fX2Ey,0.0,deliberation,3.0,28.0,30.0,1.0,Kraa1n.jpg,Monda1.jpg,65.0,55.0,0.0,1.0,1.0,30.0,1.0,0.869,-0.9461275774255311,10.0,0.5386070918720477,0.06683445665565546,0.47177263521639223
29,V1,d09142021,fX2Ey,0.0,deliberation,3.0,29.0,50.0,11.0,Klic1n.jpg,Clifa1.jpg,66.0,45.0,0.0,-1.0,1.0,50.0,11.0,0.808,-1.0376802415669986,21.0,0.5857843553936869,-0.4049381785607368,0.9907225339544237
30,V1,d09142021,fX2Ey,0.0,deliberation,3.0,30.0,60.0,69.0,Kupc1n.jpg,Picad1.jpg,65.0,55.0,0.0,-1.0,1.0,60.0,69.0,0.869,-0.9461275774255311,10.0,0.5386070918720477,0.06683445665565546,0.47177263521639223
31,V1,d09142021,fX2Ey,1.0,deliberation,3.0,31.0,18.0,29.0,Krab1n.jpg,Klinb1.jpg,44.0,46.0,0.0,1.0,0.0,29.0,18.0,1.136,-0.545397063888288,-2.0,-0.45211544208237603,-0.35776091503909757,-0.09435452704327846
32,V1,d09142021,fX2Ey,0.0,deliberation,3.0,32.0,66.0,55.0,Vinca1.jpg,Clia1n.jpg,54.0,43.0,0.0,1.0,1.0,66.0,55.0,0.791,-1.0631949184588831,11.0,0.019657193134016232,-0.49929270560401523,0.5189498987380314
33,V1,d09142021,fX2Ey,1.0,deliberation,3.0,33.0,53.0,58.0,Macc1n.jpg,Klinc1.jpg,64.0,59.0,0.0,-1.0,1.0,53.0,58.0,0.972,-0.7915386527276433,5.0,0.4914298283504085,0.2555435107422124,0.23588631760819612
34,V1,d09142021,fX2Ey,0.0,deliberation,3.0,34.0,63.0,25.0,Lewia1.jpg,Dekob1.jpg,41.0,55.0,0.0,-1.0,0.0,25.0,63.0,0.806,-1.0406819682601616,-14.0,-0.5936472326472937,0.06683445665565546,-0.6604816893029491
35,V1,d09142021,fX2Ey,1.0,deliberation,3.0,35.0,22.0,47.0,Klina1.jpg,Vina1n.jpg,46.0,64.0,0.0,-1.0,0.0,47.0,22.0,0.761,-1.108220818856326,-18.0,-0.35776091503909757,0.4914298283504085,-0.8491907433895061
36,V1,d09142021,CDRCj,0.0,deliberation,1.0,0.0,46.0,21.0,Lewb1n.jpg,Kupkc1.jpg,59.0,67.0,0.0,-1.0,0.0,21.0,46.0,5.08,2.8923284163234158,-8.0,0.142753867147955,0.5213276584795484,-0.3785737913315934
37,V1,d09142021,CDRCj,0.0,deliberation,1.0,1.0,68.0,30.0,Mondb1.jpg,Kraa1n.jpg,62.0,38.0,0.0,1.0,1.0,68.0,30.0,3.604,1.594517550508849,24.0,0.28471903889730255,-0.8510023350974778,1.1357213739947802
38,V1,d09142021,CDRCj,0.0,deliberation,1.0,2.0,69.0,53.0,Picad1.jpg,Macc1n.jpg,40.0,63.0,0.0,-1.0,1.0,69.0,53.0,3.118,1.1671895824967353,-23.0,-0.7563588872645794,0.3320407628137517,-1.088399650078331
39,V1,d09142021,CDRCj,1.0,deliberation,1.0,3.0,55.0,45.0,Clia1n.jpg,Lasc1n.jpg,57.0,67.0,1.0,-1.0,1.0,55.0,45.0,3.502,1.5048314337655657,-10.0,0.04811041931505662,0.5213276584795484,-0.4732172391644918
40,V1,d09142021,CDRCj,0.0,deliberation,1.0,4.0,47.0,42.0,Vina1n.jpg,Mackc1.jpg,71.0,68.0,0.0,1.0,1.0,47.0,42.0,2.314,0.46025195640262173,3.0,0.7106145541453451,0.5686493823959976,0.14196517174934753
41,V1,d09142021,CDRCj,1.0,deliberation,1.0,5.0,39.0,10.0,Kupb1n.jpg,Vinb1n.jpg,61.0,70.0,1.0,-1.0,1.0,39.0,10.0,2.199,0.3591352561528416,-9.0,0.23739731498085334,0.663292830228896,-0.4258955152480426
42,V1,d09142021,CDRCj,0.0,deliberation,1.0,6.0,63.0,56.0,Lewia1.jpg,Clib1n.jpg,68.0,61.0,0.0,1.0,1.0,63.0,56.0,3.897,1.8521453172322013,7.0,0.5686493823959976,0.23739731498085334,0.33125206741514424
43,V1,d09142021,CDRCj,1.0,deliberation,1.0,7.0,12.0,29.0,Klie1n.jpg,Klinb1.jpg,62.0,41.0,1.0,1.0,1.0,12.0,29.0,2.025,0.20614129229665284,21.0,0.28471903889730255,-0.7090371633481303,0.9937562022454328
44,V1,d09142021,CDRCj,0.0,deliberation,1.0,8.0,26.0,31.0,Klid1n.jpg,Picac1.jpg,58.0,68.0,0.0,-1.0,0.0,31.0,26.0,2.544,0.6624853569021816,-10.0,0.0954321432315058,0.5686493823959976,-0.4732172391644918
45,V1,d09142021,CDRCj,1.0,deliberation,1.0,9.0,48.0,44.0,Maca1n.jpg,Mackb1.jpg,67.0,42.0,1.0,1.0,0.0,44.0,48.0,2.615,0.7249139283607415,25.0,0.5213276584795484,-0.6617154394316811,1.1830430979112294
46,V1,d09142021,CDRCj,1.0,deliberation,1.0,10.0,5.0,37.0,Pica1n.jpg,Deka1n.jpg,57.0,40.0,1.0,1.0,1.0,5.0,37.0,2.111,0.2817589985704016,17.0,0.04811041931505662,-0.7563588872645794,0.8044693065796361
47,V1,d09142021,CDRCj,1.0,deliberation,1.0,11.0,11.0,8.0,Clifa1.jpg,Picd1n.jpg,63.0,64.0,1.0,-1.0,0.0,8.0,11.0,1.711,-0.06995126316796356,-1.0,0.3320407628137517,0.3793624867302009,-0.047321723916449177
48,V1,d09142021,CDRCj,1.0,deliberation,2.0,12.0,11.0,8.0,Clifa1.jpg,Picd1n.jpg,63.0,64.0,0.0,-1.0,0.0,8.0,11.0,0.915,-0.76985468402731,-1.0,0.3320407628137517,0.3793624867302009,-0.047321723916449177
49,V1,d09142021,CDRCj,1.0,deliberation,2.0,13.0,5.0,37.0,Pica1n.jpg,Deka1n.jpg,57.0,40.0,0.0,1.0,1.0,5.0,37.0,1.4,-0.3434059916695425,17.0,0.04811041931505662,-0.7563588872645794,0.8044693065796361
50,V1,d09142021,CDRCj,0.0,deliberation,2.0,14.0,26.0,31.0,Klid1n.jpg,Picac1.jpg,58.0,68.0,1.0,-1.0,0.0,31.0,26.0,1.032,-0.6669794324688383,-10.0,0.0954321432315058,0.5686493823959976,-0.4732172391644918
51,V1,d09142021,CDRCj,1.0,deliberation,2.0,15.0,39.0,10.0,Kupb1n.jpg,Vinb1n.jpg,61.0,70.0,0.0,-1.0,1.0,39.0,10.0,1.22,-0.5016756094518068,-9.0,0.23739731498085334,0.663292830228896,-0.4258955152480426
52,V1,d09142021,CDRCj,1.0,deliberation,2.0,16.0,48.0,44.0,Maca1n.jpg,Mackb1.jpg,67.0,42.0,0.0,1.0,0.0,44.0,48.0,0.937,-0.7505106196317,25.0,0.5213276584795484,-0.6617154394316811,1.1830430979112294
53,V1,d09142021,CDRCj,0.0,deliberation,2.0,17.0,63.0,56.0,Lewia1.jpg,Clib1n.jpg,68.0,61.0,1.0,1.0,1.0,63.0,56.0,1.011,-0.6854442212101025,7.0,0.5686493823959976,0.23739731498085334,0.33125206741514424
54,V1,d09142021,CDRCj,1.0,deliberation,2.0,18.0,12.0,29.0,Klie1n.jpg,Klinb1.jpg,62.0,41.0,0.0,1.0,1.0,12.0,29.0,0.873,-0.8067842615098384,21.0,0.28471903889730255,-0.7090371633481303,0.9937562022454328
55,V1,d09142021,CDRCj,0.0,deliberation,2.0,19.0,69.0,53.0,Picad1.jpg,Macc1n.jpg,40.0,63.0,1.0,-1.0,0.0,53.0,69.0,2.537,0.6563304273217601,-23.0,-0.7563588872645794,0.3320407628137517,-1.088399650078331
56,V1,d09142021,CDRCj,1.0,deliberation,2.0,20.0,55.0,45.0,Clia1n.jpg,Lasc1n.jpg,57.0,67.0,0.0,-1.0,1.0,55.0,45.0,1.123,-0.5869653479233602,-10.0,0.04811041931505662,0.5213276584795484,-0.4732172391644918
57,V1,d09142021,CDRCj,0.0,deliberation,2.0,21.0,68.0,30.0,Mondb1.jpg,Kraa1n.jpg,62.0,38.0,1.0,1.0,1.0,68.0,30.0,1.287,-0.44276414061063063,24.0,0.28471903889730255,-0.8510023350974778,1.1357213739947802
58,V1,d09142021,CDRCj,0.0,deliberation,2.0,22.0,46.0,21.0,Lewb1n.jpg,Kupkc1.jpg,59.0,67.0,1.0,-1.0,0.0,21.0,46.0,2.148,0.3142921977812003,-8.0,0.142753867147955,0.5213276584795484,-0.3785737913315934
59,V1,d09142021,CDRCj,0.0,deliberation,2.0,23.0,47.0,42.0,Vina1n.jpg,Mackc1.jpg,71.0,68.0,1.0,1.0,0.0,42.0,47.0,3.894,1.8495074902691635,3.0,0.7106145541453451,0.5686493823959976,0.14196517174934753
60,V1,d09142021,CDRCj,0.0,deliberation,3.0,24.0,69.0,53.0,Picad1.jpg,Macc1n.jpg,40.0,63.0,0.0,-1.0,0.0,53.0,69.0,1.226,-0.49639995552573124,-23.0,-0.7563588872645794,0.3320407628137517,-1.088399650078331
61,V1,d09142021,CDRCj,1.0,deliberation,3.0,25.0,48.0,44.0,Maca1n.jpg,Mackb1.jpg,67.0,42.0,0.0,1.0,0.0,44.0,48.0,2.153,0.3186885760529298,25.0,0.5213276584795484,-0.6617154394316811,1.1830430979112294
62,V1,d09142021,CDRCj,1.0,deliberation,3.0,26.0,5.0,37.0,Pica1n.jpg,Deka1n.jpg,57.0,40.0,0.0,1.0,1.0,5.0,37.0,0.996,-0.6986333560252911,17.0,0.04811041931505662,-0.7563588872645794,0.8044693065796361
63,V1,d09142021,CDRCj,0.0,deliberation,3.0,27.0,63.0,56.0,Lewia1.jpg,Clib1n.jpg,68.0,61.0,0.0,1.0,1.0,63.0,56.0,0.792,-0.8780055895118573,7.0,0.5686493823959976,0.23739731498085334,0.33125206741514424
64,V1,d09142021,CDRCj,0.0,deliberation,3.0,28.0,47.0,42.0,Vina1n.jpg,Mackc1.jpg,71.0,68.0,0.0,1.0,0.0,42.0,47.0,0.844,-0.8322832554858699,3.0,0.7106145541453451,0.5686493823959976,0.14196517174934753
65,V1,d09142021,CDRCj,1.0,deliberation,3.0,29.0,12.0,29.0,Klie1n.jpg,Klinb1.jpg,62.0,41.0,0.0,1.0,1.0,12.0,29.0,0.67,-0.9852772193420585,21.0,0.28471903889730255,-0.7090371633481303,0.9937562022454328
66,V1,d09142021,CDRCj,1.0,deliberation,3.0,30.0,55.0,45.0,Clia1n.jpg,Lasc1n.jpg,57.0,67.0,0.0,-1.0,1.0,55.0,45.0,0.836,-0.8393174607206372,-10.0,0.04811041931505662,0.5213276584795484,-0.4732172391644918
67,V1,d09142021,CDRCj,0.0,deliberation,3.0,31.0,26.0,31.0,Klid1n.jpg,Picac1.jpg,58.0,68.0,0.0,-1.0,0.0,31.0,26.0,0.758,-0.9079009617596183,-10.0,0.0954321432315058,0.5686493823959976,-0.4732172391644918
68,V1,d09142021,CDRCj,1.0,deliberation,3.0,32.0,11.0,8.0,Clifa1.jpg,Picd1n.jpg,63.0,64.0,0.0,-1.0,0.0,8.0,11.0,0.885,-0.7962329536576874,-1.0,0.3320407628137517,0.3793624867302009,-0.047321723916449177
69,V1,d09142021,CDRCj,1.0,deliberation,3.0,33.0,39.0,10.0,Kupb1n.jpg,Vinb1n.jpg,61.0,70.0,0.0,-1.0,1.0,39.0,10.0,0.727,-0.9351585070443416,-9.0,0.23739731498085334,0.663292830228896,-0.4258955152480426
70,V1,d09142021,CDRCj,0.0,deliberation,3.0,34.0,68.0,30.0,Mondb1.jpg,Kraa1n.jpg,62.0,38.0,0.0,1.0,1.0,68.0,30.0,0.734,-0.9290035774639203,24.0,0.28471903889730255,-0.8510023350974778,1.1357213739947802
71,V1,d09142021,CDRCj,0.0,deliberation,3.0,35.0,46.0,21.0,Lewb1n.jpg,Kupkc1.jpg,59.0,67.0,0.0,-1.0,0.0,21.0,46.0,0.742,-0.921969372229153,-8.0,0.142753867147955,0.5213276584795484,-0.3785737913315934
72,V1,d09172021,S5lJ6,1.0,deliberation,1.0,0.0,18.0,53.0,Krab1n.jpg,Macc1n.jpg,44.0,38.0,1.0,1.0,0.0,53.0,18.0,1.987,-0.41432634518046085,6.0,-0.041520789316453685,-0.34657148633529583,0.30505069701884213
73,V1,d09172021,S5lJ6,0.0,deliberation,1.0,1.0,30.0,55.0,Kraa1n.jpg,Clia1n.jpg,31.0,56.0,0.0,1.0,1.0,30.0,55.0,3.287,0.2943379686286745,-25.0,-0.7024639661906117,0.5685806047212306,-1.2710445709118423
74,V1,d09172021,S5lJ6,1.0,deliberation,1.0,2.0,57.0,4.0,Lassa1.jpg,Krasb1.jpg,58.0,32.0,1.0,1.0,1.0,57.0,4.0,4.049,0.7097242817998757,26.0,0.6702641703941781,-0.651622183354138,1.321886353748316
75,V1,d09172021,S5lJ6,0.0,deliberation,1.0,3.0,15.0,23.0,Lassc1.jpg,Rohlb1.jpg,35.0,33.0,0.0,-1.0,0.0,23.0,15.0,2.78,0.017958886243111608,2.0,-0.49909683484471695,-0.6007804005176643,0.1016835656729474
76,V1,d09172021,S5lJ6,0.0,deliberation,1.0,4.0,38.0,7.0,Krasa1.jpg,Macb1n.jpg,36.0,46.0,0.0,1.0,1.0,38.0,7.0,5.452,1.474536614318504,-10.0,-0.4482550520082432,0.060162776356493704,-0.5084178283647369
77,V1,d09172021,S5lJ6,1.0,deliberation,1.0,5.0,66.0,37.0,Vinca1.jpg,Deka1n.jpg,44.0,31.0,1.0,-1.0,1.0,66.0,37.0,4.389,0.8950672561807264,13.0,-0.041520789316453685,-0.7024639661906117,0.660943176874158
78,V1,d09172021,S5lJ6,0.0,deliberation,1.0,6.0,51.0,12.0,Lewic1.jpg,Klie1n.jpg,50.0,59.0,0.0,1.0,,,,,,-9.0,0.2635299077023885,0.7211059532306517,-0.45757604552826325
79,V1,d09172021,S5lJ6,0.0,deliberation,1.0,6.0,51.0,12.0,Lewic1.jpg,Klie1n.jpg,50.0,59.0,0.0,1.0,0.0,12.0,51.0,7.154,2.4023417390132336,-9.0,0.2635299077023885,0.7211059532306517,-0.45757604552826325
80,V1,d09172021,S5lJ6,0.0,deliberation,1.0,7.0,64.0,29.0,Vincb1.jpg,Klinb1.jpg,40.0,60.0,0.0,-1.0,1.0,64.0,29.0,5.071,1.2668434577329033,-20.0,-0.24488792066234846,0.7719477360671254,-1.0168356567294738
81,V1,d09172021,S5lJ6,1.0,deliberation,1.0,8.0,43.0,19.0,Clifb1.jpg,Picc1n.jpg,35.0,33.0,1.0,-1.0,1.0,43.0,19.0,3.748,0.5456412368332988,2.0,-0.49909683484471695,-0.6007804005176643,0.1016835656729474
82,V1,d09172021,S5lJ6,1.0,deliberation,1.0,9.0,36.0,63.0,Gustb1.jpg,Lewia1.jpg,43.0,37.0,1.0,-1.0,0.0,63.0,36.0,6.112,1.8343200351754496,6.0,-0.09236257215292738,-0.39741326917176956,0.3050506970188422
83,V1,d09172021,S5lJ6,0.0,deliberation,1.0,10.0,32.0,50.0,Kupkb1.jpg,Klic1n.jpg,31.0,32.0,0.0,-1.0,0.0,50.0,32.0,6.355,1.9667857492182343,-1.0,-0.7024639661906117,-0.651622183354138,-0.05084178283647367
84,V1,d09172021,S5lJ6,1.0,deliberation,1.0,11.0,6.0,33.0,Gusc1n.jpg,Kline1.jpg,53.0,55.0,1.0,1.0,1.0,6.0,33.0,4.638,1.0308037285949376,-2.0,0.41605525621180955,0.517738821884757,-0.1016835656729474
85,V1,d09172021,S5lJ6,0.0,deliberation,2.0,12.0,30.0,55.0,Kraa1n.jpg,Clia1n.jpg,31.0,56.0,1.0,1.0,1.0,30.0,55.0,2.3,-0.2437017834710307,-25.0,-0.7024639661906117,0.5685806047212306,-1.2710445709118423
86,V1,d09172021,S5lJ6,1.0,deliberation,2.0,13.0,36.0,63.0,Gustb1.jpg,Lewia1.jpg,43.0,37.0,0.0,-1.0,0.0,63.0,36.0,3.46,0.38864483500481334,6.0,-0.09236257215292738,-0.39741326917176956,0.3050506970188422
87,V1,d09172021,S5lJ6,1.0,deliberation,2.0,14.0,6.0,33.0,Gusc1n.jpg,Kline1.jpg,53.0,55.0,0.0,1.0,1.0,6.0,33.0,3.039,0.15914662260970108,-2.0,0.41605525621180955,0.517738821884757,-0.1016835656729474
88,V1,d09172021,S5lJ6,0.0,deliberation,2.0,15.0,64.0,29.0,Vincb1.jpg,Klinb1.jpg,40.0,60.0,1.0,-1.0,1.0,64.0,29.0,1.423,-0.7217776320945781,-20.0,-0.24488792066234846,0.7719477360671254,-1.0168356567294738
89,V1,d09172021,S5lJ6,1.0,deliberation,2.0,16.0,66.0,37.0,Vinca1.jpg,Deka1n.jpg,44.0,31.0,0.0,-1.0,1.0,66.0,37.0,2.648,-0.05399779792827735,13.0,-0.041520789316453685,-0.7024639661906117,0.660943176874158
90,V1,d09172021,S5lJ6,1.0,deliberation,2.0,17.0,43.0,19.0,Clifb1.jpg,Picc1n.jpg,35.0,33.0,0.0,-1.0,1.0,43.0,19.0,1.004,-0.9501855916992149,2.0,-0.49909683484471695,-0.6007804005176643,0.1016835656729474
91,V1,d09172021,S5lJ6,0.0,deliberation,2.0,18.0,38.0,7.0,Krasa1.jpg,Macb1n.jpg,36.0,46.0,1.0,1.0,1.0,38.0,7.0,1.399,-0.7348606655802853,-10.0,-0.4482550520082432,0.060162776356493704,-0.5084178283647369
92,V1,d09172021,S5lJ6,1.0,deliberation,2.0,19.0,18.0,53.0,Krab1n.jpg,Macc1n.jpg,44.0,38.0,0.0,1.0,0.0,53.0,18.0,2.49,-0.14012776837584914,6.0,-0.041520789316453685,-0.34657148633529583,0.30505069701884213
93,V1,d09172021,S5lJ6,1.0,deliberation,2.0,20.0,57.0,4.0,Lassa1.jpg,Krasb1.jpg,58.0,32.0,0.0,1.0,1.0,57.0,4.0,2.714,-0.01801945584258287,26.0,0.6702641703941781,-0.651622183354138,1.321886353748316
94,V1,d09172021,S5lJ6,0.0,deliberation,2.0,21.0,15.0,23.0,Lassc1.jpg,Rohlb1.jpg,35.0,33.0,1.0,-1.0,0.0,23.0,15.0,2.218,-0.2884021478805299,2.0,-0.49909683484471695,-0.6007804005176643,0.1016835656729474
95,V1,d09172021,S5lJ6,0.0,deliberation,2.0,22.0,51.0,12.0,Lewic1.jpg,Klie1n.jpg,50.0,59.0,1.0,1.0,0.0,12.0,51.0,3.767,0.5559986383428168,-9.0,0.2635299077023885,0.7211059532306517,-0.45757604552826325
96,V1,d09172021,S5lJ6,0.0,deliberation,2.0,23.0,32.0,50.0,Kupkb1.jpg,Klic1n.jpg,31.0,32.0,1.0,-1.0,0.0,50.0,32.0,4.867,1.155637673104393,-1.0,-0.7024639661906117,-0.651622183354138,-0.05084178283647367
97,V1,d09172021,S5lJ6,0.0,deliberation,3.0,24.0,64.0,29.0,Vincb1.jpg,Klinb1.jpg,40.0,60.0,0.0,-1.0,1.0,64.0,29.0,2.593,-0.08397974966635624,-20.0,-0.24488792066234846,0.7719477360671254,-1.0168356567294738
98,V1,d09172021,S5lJ6,1.0,deliberation,3.0,25.0,66.0,37.0,Vinca1.jpg,Deka1n.jpg,44.0,31.0,0.0,-1.0,1.0,66.0,37.0,0.808,-1.057030365165823,13.0,-0.041520789316453685,-0.7024639661906117,0.660943176874158
99,V1,d09172021,S5lJ6,1.0,deliberation,3.0,26.0,43.0,19.0,Clifb1.jpg,Picc1n.jpg,35.0,33.0,0.0,-1.0,1.0,43.0,19.0,0.745,-1.091373328065804,2.0,-0.49909683484471695,-0.6007804005176643,0.1016835656729474
100,V1,d09172021,S5lJ6,1.0,deliberation,3.0,27.0,57.0,4.0,Lassa1.jpg,Krasb1.jpg,58.0,32.0,0.0,1.0,1.0,57.0,4.0,0.704,-1.113723510270554,26.0,0.6702641703941781,-0.651622183354138,1.321886353748316
101,V1,d09172021,S5lJ6,0.0,deliberation,3.0,28.0,38.0,7.0,Krasa1.jpg,Macb1n.jpg,36.0,46.0,0.0,1.0,1.0,38.0,7.0,0.941,-0.9845285545991961,-10.0,-0.4482550520082432,0.060162776356493704,-0.5084178283647369
102,V1,d09172021,S5lJ6,1.0,deliberation,3.0,29.0,18.0,53.0,Krab1n.jpg,Macc1n.jpg,44.0,38.0,0.0,1.0,0.0,53.0,18.0,1.602,-0.6242000073470125,6.0,-0.041520789316453685,-0.34657148633529583,0.30505069701884213
103,V1,d09172021,S5lJ6,1.0,deliberation,3.0,30.0,6.0,33.0,Gusc1n.jpg,Kline1.jpg,53.0,55.0,0.0,1.0,1.0,6.0,33.0,1.044,-0.928380535889703,-2.0,0.41605525621180955,0.517738821884757,-0.1016835656729474
104,V1,d09172021,S5lJ6,1.0,deliberation,3.0,31.0,36.0,63.0,Gustb1.jpg,Lewia1.jpg,43.0,37.0,0.0,-1.0,0.0,63.0,36.0,1.121,-0.8864058034563926,6.0,-0.09236257215292738,-0.39741326917176956,0.3050506970188422
105,V1,d09172021,S5lJ6,0.0,deliberation,3.0,32.0,30.0,55.0,Kraa1n.jpg,Clia1n.jpg,31.0,56.0,0.0,1.0,1.0,30.0,55.0,0.955,-0.9768967850658669,-25.0,-0.7024639661906117,0.5685806047212306,-1.2710445709118423
106,V1,d09172021,S5lJ6,0.0,deliberation,3.0,33.0,51.0,12.0,Lewic1.jpg,Klie1n.jpg,50.0,59.0,0.0,1.0,0.0,12.0,51.0,0.641,-1.148066473170535,-9.0,0.2635299077023885,0.7211059532306517,-0.45757604552826325
107,V1,d09172021,S5lJ6,0.0,deliberation,3.0,34.0,15.0,23.0,Lassc1.jpg,Rohlb1.jpg,35.0,33.0,0.0,-1.0,0.0,23.0,15.0,0.776,-1.0744744098134325,2.0,-0.49909683484471695,-0.6007804005176643,0.1016835656729474
108,V1,d09172021,S5lJ6,0.0,deliberation,3.0,35.0,32.0,50.0,Kupkb1.jpg,Klic1n.jpg,31.0,32.0,0.0,-1.0,0.0,50.0,32.0,0.613,-1.1633300122371932,-1.0,-0.7024639661906117,-0.651622183354138,-0.05084178283647367
109,V1,d09172021,IDAjV,1.0,deliberation,1.0,0.0,46.0,62.0,Lewb1n.jpg,Mona1n.jpg,46.0,59.0,1.0,1.0,0.0,62.0,46.0,2.545,0.8267058876475788,-13.0,-0.7740307136461029,0.5132698335691637,-1.2873005472152665
110,V1,d09172021,IDAjV,1.0,deliberation,1.0,1.0,67.0,8.0,Picab1.jpg,Picd1n.jpg,58.0,60.0,1.0,-1.0,0.0,8.0,67.0,7.343,4.591509983763771,-2.0,0.4142467145526047,0.6122929525857226,-0.19804623803311788
111,V1,d09172021,IDAjV,0.0,deliberation,1.0,2.0,69.0,11.0,Picad1.jpg,Clifa1.jpg,54.0,61.0,0.0,-1.0,0.0,11.0,69.0,1.842,0.27508911408157577,-7.0,0.018154238486368816,0.7113160716022816,-0.6931618331159128
112,V1,d09172021,IDAjV,0.0,deliberation,1.0,3.0,33.0,34.0,Kline1.jpg,Lasb1n.jpg,53.0,46.0,0.0,1.0,0.0,34.0,33.0,3.459,1.5438861593962658,7.0,-0.08086888053019015,-0.7740307136461029,0.6931618331159127
113,V1,d09172021,IDAjV,0.0,deliberation,1.0,4.0,60.0,56.0,Kupc1n.jpg,Clib1n.jpg,58.0,51.0,0.0,-1.0,1.0,60.0,56.0,3.671,1.710234318707777,7.0,0.4142467145526047,-0.2789151185633081,0.6931618331159128
114,V1,d09172021,IDAjV,1.0,deliberation,1.0,5.0,7.0,5.0,Macb1n.jpg,Pica1n.jpg,60.0,51.0,1.0,1.0,1.0,7.0,5.0,2.382,0.6988061236486337,9.0,0.6122929525857226,-0.2789151185633081,0.8912080711490307
115,V1,d09172021,IDAjV,1.0,deliberation,1.0,6.0,48.0,52.0,Maca1n.jpg,Dekoa1.jpg,57.0,60.0,1.0,-1.0,1.0,48.0,52.0,1.148,-0.26946570932497654,-3.0,0.31522359553604573,0.6122929525857226,-0.29706935704967685
116,V1,d09172021,IDAjV,0.0,deliberation,1.0,7.0,25.0,35.0,Dekob1.jpg,Gusa1n.jpg,55.0,55.0,0.0,1.0,1.0,25.0,35.0,2.31,0.6423105223730259,0.0,0.11717735750292778,0.11717735750292778,0.0
117,V1,d09172021,IDAjV,0.0,deliberation,1.0,8.0,57.0,12.0,Lassa1.jpg,Klie1n.jpg,54.0,56.0,0.0,1.0,0.0,12.0,57.0,1.715,0.17543715072043436,-2.0,0.018154238486368816,0.21620047651948676,-0.19804623803311794
118,V1,d09172021,IDAjV,0.0,deliberation,1.0,9.0,55.0,54.0,Clia1n.jpg,Rohla1.jpg,53.0,60.0,0.0,-1.0,0.0,54.0,55.0,1.463,-0.022297453744192643,-7.0,-0.08086888053019015,0.6122929525857226,-0.6931618331159127
119,V1,d09172021,IDAjV,1.0,deliberation,1.0,10.0,65.0,29.0,Roha1n.jpg,Klinb1.jpg,57.0,56.0,1.0,1.0,1.0,65.0,29.0,1.228,-0.2066928190187457,1.0,0.31522359553604573,0.21620047651948676,0.09902311901655897
120,V1,d09172021,IDAjV,1.0,deliberation,1.0,11.0,44.0,16.0,Mackb1.jpg,Vincc1.jpg,53.0,48.0,1.0,-1.0,0.0,16.0,44.0,1.807,0.2476259745725997,5.0,-0.08086888053019015,-0.5759844756129849,0.4951155950827948
121,V1,d09172021,IDAjV,0.0,deliberation,2.0,12.0,25.0,35.0,Dekob1.jpg,Gusa1n.jpg,55.0,55.0,1.0,1.0,1.0,25.0,35.0,1.749,0.20211562910058248,0.0,0.11717735750292778,0.11717735750292778,0.0
122,V1,d09172021,IDAjV,1.0,deliberation,2.0,13.0,46.0,62.0,Lewb1n.jpg,Mona1n.jpg,46.0,59.0,0.0,1.0,0.0,62.0,46.0,1.757,0.2083929181312054,-13.0,-0.7740307136461029,0.5132698335691637,-1.2873005472152665
123,V1,d09172021,IDAjV,0.0,deliberation,2.0,14.0,69.0,11.0,Picad1.jpg,Clifa1.jpg,54.0,61.0,1.0,-1.0,0.0,11.0,69.0,0.779,-0.559005665862466,-7.0,0.018154238486368816,0.7113160716022816,-0.6931618331159128
124,V1,d09172021,IDAjV,0.0,deliberation,2.0,15.0,55.0,54.0,Clia1n.jpg,Rohla1.jpg,53.0,60.0,1.0,-1.0,0.0,54.0,55.0,0.765,-0.5699909216660564,-7.0,-0.08086888053019015,0.6122929525857226,-0.6931618331159127
125,V1,d09172021,IDAjV,1.0,deliberation,2.0,16.0,44.0,16.0,Mackb1.jpg,Vincc1.jpg,53.0,48.0,0.0,-1.0,0.0,16.0,44.0,0.578,-0.7167225527568709,5.0,-0.08086888053019015,-0.5759844756129849,0.4951155950827948
126,V1,d09172021,IDAjV,1.0,deliberation,2.0,17.0,67.0,8.0,Picab1.jpg,Picd1n.jpg,58.0,60.0,0.0,-1.0,0.0,8.0,67.0,0.908,-0.45778438024366885,-2.0,0.4142467145526047,0.6122929525857226,-0.19804623803311788
127,V1,d09172021,IDAjV,0.0,deliberation,2.0,18.0,57.0,12.0,Lassa1.jpg,Klie1n.jpg,54.0,56.0,1.0,1.0,0.0,12.0,57.0,0.728,-0.5990233834326881,-2.0,0.018154238486368816,0.21620047651948676,-0.19804623803311794
128,V1,d09172021,IDAjV,1.0,deliberation,2.0,19.0,65.0,29.0,Roha1n.jpg,Klinb1.jpg,57.0,56.0,0.0,1.0,1.0,65.0,29.0,1.499,0.005950346893611241,1.0,0.31522359553604573,0.21620047651948676,0.09902311901655897
129,V1,d09172021,IDAjV,1.0,deliberation,2.0,20.0,7.0,5.0,Macb1n.jpg,Pica1n.jpg,60.0,51.0,0.0,1.0,1.0,7.0,5.0,0.698,-0.6225632172975247,9.0,0.6122929525857226,-0.2789151185633081,0.8912080711490307
130,V1,d09172021,IDAjV,1.0,deliberation,2.0,21.0,48.0,52.0,Maca1n.jpg,Dekoa1.jpg,57.0,60.0,0.0,-1.0,1.0,48.0,52.0,1.04,-0.354209111238388,-3.0,0.31522359553604573,0.6122929525857226,-0.29706935704967685
131,V1,d09172021,IDAjV,0.0,deliberation,2.0,22.0,60.0,56.0,Kupc1n.jpg,Clib1n.jpg,58.0,51.0,1.0,-1.0,1.0,60.0,56.0,0.946,-0.4279672573482093,7.0,0.4142467145526047,-0.2789151185633081,0.6931618331159128
132,V1,d09172021,IDAjV,0.0,deliberation,2.0,23.0,33.0,34.0,Kline1.jpg,Lasb1n.jpg,53.0,46.0,1.0,1.0,,,,,,7.0,-0.08086888053019015,-0.7740307136461029,0.6931618331159127
133,V1,d09172021,IDAjV,0.0,deliberation,2.0,23.0,33.0,34.0,Kline1.jpg,Lasb1n.jpg,53.0,46.0,1.0,1.0,0.0,34.0,33.0,0.565,-0.7269231474316334,7.0,-0.08086888053019015,-0.7740307136461029,0.6931618331159127
134,V1,d09172021,IDAjV,0.0,deliberation,3.0,24.0,33.0,34.0,Kline1.jpg,Lasb1n.jpg,53.0,46.0,0.0,1.0,0.0,34.0,33.0,1.445,-0.03642135406309458,7.0,-0.08086888053019015,-0.7740307136461029,0.6931618331159127
135,V1,d09172021,IDAjV,0.0,deliberation,3.0,25.0,60.0,56.0,Kupc1n.jpg,Clib1n.jpg,58.0,51.0,0.0,-1.0,1.0,60.0,56.0,0.654,-0.6570883069659517,7.0,0.4142467145526047,-0.2789151185633081,0.6931618331159128
136,V1,d09172021,IDAjV,1.0,deliberation,3.0,26.0,67.0,8.0,Picab1.jpg,Picd1n.jpg,58.0,60.0,0.0,-1.0,0.0,8.0,67.0,0.671,-0.6437490677758776,-2.0,0.4142467145526047,0.6122929525857226,-0.19804623803311788
137,V1,d09172021,IDAjV,0.0,deliberation,3.0,27.0,55.0,54.0,Clia1n.jpg,Rohla1.jpg,53.0,60.0,0.0,-1.0,0.0,54.0,55.0,0.68,-0.6366871176164266,-7.0,-0.08086888053019015,0.6122929525857226,-0.6931618331159127
138,V1,d09172021,IDAjV,1.0,deliberation,3.0,28.0,48.0,52.0,Maca1n.jpg,Dekoa1.jpg,57.0,60.0,0.0,-1.0,1.0,48.0,52.0,1.954,0.36297116051029876,-3.0,0.31522359553604573,0.6122929525857226,-0.29706935704967685
139,V1,d09172021,IDAjV,1.0,deliberation,3.0,29.0,7.0,5.0,Macb1n.jpg,Pica1n.jpg,60.0,51.0,0.0,1.0,1.0,7.0,5.0,0.737,-0.5919614332732372,9.0,0.6122929525857226,-0.2789151185633081,0.8912080711490307
140,V1,d09172021,IDAjV,0.0,deliberation,3.0,30.0,25.0,35.0,Dekob1.jpg,Gusa1n.jpg,55.0,55.0,0.0,1.0,1.0,25.0,35.0,0.904,-0.4609230247589804,0.0,0.11717735750292778,0.11717735750292778,0.0
141,V1,d09172021,IDAjV,1.0,deliberation,3.0,31.0,65.0,29.0,Roha1n.jpg,Klinb1.jpg,57.0,56.0,0.0,1.0,1.0,65.0,29.0,0.648,-0.6617962737389189,1.0,0.31522359553604573,0.21620047651948676,0.09902311901655897
142,V1,d09172021,IDAjV,0.0,deliberation,3.0,32.0,69.0,11.0,Picad1.jpg,Clifa1.jpg,54.0,61.0,0.0,-1.0,0.0,11.0,69.0,0.76,-0.5739142273101958,-7.0,0.018154238486368816,0.7113160716022816,-0.6931618331159128
143,V1,d09172021,IDAjV,1.0,deliberation,3.0,33.0,44.0,16.0,Mackb1.jpg,Vincc1.jpg,53.0,48.0,0.0,-1.0,0.0,16.0,44.0,0.679,-0.6374717787452545,5.0,-0.08086888053019015,-0.5759844756129849,0.4951155950827948
144,V1,d09172021,IDAjV,1.0,deliberation,3.0,34.0,46.0,62.0,Lewb1n.jpg,Mona1n.jpg,46.0,59.0,0.0,1.0,0.0,62.0,46.0,0.978,-0.4028581012257169,-13.0,-0.7740307136461029,0.5132698335691637,-1.2873005472152665
145,V1,d09172021,IDAjV,0.0,deliberation,3.0,35.0,57.0,12.0,Lassa1.jpg,Klie1n.jpg,54.0,56.0,0.0,1.0,0.0,12.0,57.0,0.656,-0.6555189847082958,-2.0,0.018154238486368816,0.21620047651948676,-0.19804623803311794
146,V1,d09172021,59tg8,0.0,deliberation,1.0,0.0,31.0,50.0,Picac1.jpg,Klic1n.jpg,31.0,0.0,0.0,1.0,1.0,31.0,50.0,2.559,2.050154371006487,31.0,0.27493048827503735,-0.7141811329852518,0.9891116212602891
147,V1,d09172021,59tg8,1.0,deliberation,1.0,1.0,56.0,44.0,Clib1n.jpg,Mackb1.jpg,11.0,23.0,1.0,-1.0,0.0,44.0,56.0,2.164,1.2849987279600517,-12.0,-0.36320604157031045,0.01967587633689824,-0.3828819179072087
148,V1,d09172021,59tg8,0.0,deliberation,1.0,2.0,60.0,4.0,Kupc1n.jpg,Krasb1.jpg,16.0,0.0,0.0,-1.0,1.0,60.0,4.0,1.782,0.5450254225328658,16.0,-0.2036719091089735,-0.7141811329852518,0.5105092238762783
149,V1,d09172021,59tg8,0.0,deliberation,1.0,3.0,53.0,63.0,Macc1n.jpg,Lewia1.jpg,18.0,0.0,0.0,-1.0,1.0,53.0,63.0,2.141,1.2404453614029172,18.0,-0.13985825612443872,-0.7141811329852518,0.5743228768608131
150,V1,d09172021,59tg8,0.0,deliberation,1.0,4.0,22.0,10.0,Klina1.jpg,Vinb1n.jpg,31.0,0.0,0.0,-1.0,1.0,22.0,10.0,2.402,1.7460292166817013,31.0,0.27493048827503735,-0.7141811329852518,0.9891116212602891
151,V1,d09172021,59tg8,0.0,deliberation,1.0,5.0,3.0,48.0,Klib1n.jpg,Maca1n.jpg,11.0,0.0,0.0,1.0,1.0,3.0,48.0,2.802,2.5208703741970786,11.0,-0.36320604157031045,-0.7141811329852518,0.3509750914149413
152,V1,d09172021,59tg8,0.0,deliberation,1.0,6.0,37.0,39.0,Deka1n.jpg,Kupb1n.jpg,0.0,0.0,0.0,1.0,0.0,39.0,37.0,1.507,0.012322126741043448,0.0,-0.7141811329852518,-0.7141811329852518,0.0
153,V1,d09172021,59tg8,1.0,deliberation,1.0,7.0,55.0,33.0,Clia1n.jpg,Kline1.jpg,20.0,21.0,1.0,-1.0,1.0,55.0,33.0,2.454,1.8467585671587003,-1.0,-0.07604460313990394,-0.044137776647636545,-0.03190682649226739
154,V1,d09172021,59tg8,1.0,deliberation,1.0,8.0,43.0,42.0,Clifb1.jpg,Mackc1.jpg,0.0,0.0,1.0,-1.0,0.0,42.0,43.0,1.616,0.22346634216398423,0.0,-0.7141811329852518,-0.7141811329852518,0.0
155,V1,d09172021,59tg8,1.0,deliberation,1.0,9.0,24.0,16.0,Lewa1n.jpg,Vincc1.jpg,0.0,0.0,1.0,1.0,0.0,16.0,24.0,1.529,0.054938390404389255,0.0,-0.7141811329852518,-0.7141811329852518,0.0
156,V1,d09172021,59tg8,1.0,deliberation,1.0,10.0,62.0,64.0,Mona1n.jpg,Vincb1.jpg,14.0,12.0,1.0,1.0,1.0,62.0,64.0,1.611,0.21378082769504178,2.0,-0.26748556209350827,-0.33129921507804305,0.06381365298453479
157,V1,d09172021,59tg8,1.0,deliberation,1.0,11.0,34.0,51.0,Lasb1n.jpg,Lewic1.jpg,0.0,0.0,1.0,1.0,1.0,34.0,51.0,2.535,2.0036639015555644,0.0,-0.7141811329852518,-0.7141811329852518,0.0
158,V1,d09172021,59tg8,0.0,deliberation,2.0,12.0,31.0,50.0,Picac1.jpg,Klic1n.jpg,31.0,0.0,1.0,1.0,1.0,31.0,50.0,1.735,0.4539815865248091,31.0,0.27493048827503735,-0.7141811329852518,0.9891116212602891
159,V1,d09172021,59tg8,0.0,deliberation,2.0,13.0,3.0,48.0,Klib1n.jpg,Maca1n.jpg,11.0,0.0,1.0,1.0,1.0,3.0,48.0,1.218,-0.5475006095638167,11.0,-0.36320604157031045,-0.7141811329852518,0.3509750914149413
160,V1,d09172021,59tg8,0.0,deliberation,2.0,14.0,22.0,10.0,Klina1.jpg,Vinb1n.jpg,31.0,0.0,1.0,-1.0,1.0,22.0,10.0,1.249,-0.48745041985637466,31.0,0.27493048827503735,-0.7141811329852518,0.9891116212602891
161,V1,d09172021,59tg8,1.0,deliberation,2.0,15.0,43.0,42.0,Clifb1.jpg,Mackc1.jpg,0.0,0.0,0.0,-1.0,0.0,42.0,43.0,1.451,-0.09615563531110907,0.0,-0.7141811329852518,-0.7141811329852518,0.0
162,V1,d09172021,59tg8,1.0,deliberation,2.0,16.0,62.0,64.0,Mona1n.jpg,Vincb1.jpg,14.0,12.0,0.0,1.0,1.0,62.0,64.0,1.219,-0.5455635066700281,2.0,-0.26748556209350827,-0.33129921507804305,0.06381365298453479
163,V1,d09172021,59tg8,0.0,deliberation,2.0,17.0,37.0,39.0,Deka1n.jpg,Kupb1n.jpg,0.0,0.0,1.0,1.0,0.0,39.0,37.0,1.396,-0.2026962944694738,0.0,-0.7141811329852518,-0.7141811329852518,0.0
164,V1,d09172021,59tg8,1.0,deliberation,2.0,18.0,55.0,33.0,Clia1n.jpg,Kline1.jpg,20.0,21.0,0.0,-1.0,1.0,55.0,33.0,1.342,-0.3072998507340494,-1.0,-0.07604460313990394,-0.044137776647636545,-0.03190682649226739
165,V1,d09172021,59tg8,0.0,deliberation,2.0,19.0,53.0,63.0,Macc1n.jpg,Lewia1.jpg,18.0,0.0,1.0,-1.0,1.0,53.0,63.0,1.293,-0.4022178925296835,18.0,-0.13985825612443872,-0.7141811329852518,0.5743228768608131
166,V1,d09172021,59tg8,1.0,deliberation,2.0,20.0,24.0,16.0,Lewa1n.jpg,Vincc1.jpg,0.0,0.0,0.0,1.0,0.0,16.0,24.0,1.239,-0.5068214487942592,0.0,-0.7141811329852518,-0.7141811329852518,0.0
167,V1,d09172021,59tg8,0.0,deliberation,2.0,21.0,60.0,4.0,Kupc1n.jpg,Krasb1.jpg,16.0,0.0,1.0,-1.0,1.0,60.0,4.0,1.365,-0.2627464841769154,16.0,-0.2036719091089735,-0.7141811329852518,0.5105092238762783
168,V1,d09172021,59tg8,1.0,deliberation,2.0,22.0,56.0,44.0,Clib1n.jpg,Mackb1.jpg,11.0,23.0,0.0,-1.0,0.0,44.0,56.0,1.286,-0.4157776127862024,-12.0,-0.36320604157031045,0.01967587633689824,-0.3828819179072087
169,V1,d09172021,59tg8,1.0,deliberation,2.0,23.0,34.0,51.0,Lasb1n.jpg,Lewic1.jpg,0.0,0.0,0.0,1.0,1.0,34.0,51.0,1.224,-0.535877992201086,0.0,-0.7141811329852518,-0.7141811329852518,0.0
170,V1,d09172021,59tg8,1.0,deliberation,3.0,24.0,55.0,33.0,Clia1n.jpg,Kline1.jpg,20.0,21.0,0.0,-1.0,1.0,55.0,33.0,1.164,-0.6521041658283927,-1.0,-0.07604460313990394,-0.044137776647636545,-0.03190682649226739
171,V1,d09172021,59tg8,0.0,deliberation,3.0,25.0,22.0,10.0,Klina1.jpg,Vinb1n.jpg,31.0,0.0,0.0,-1.0,1.0,22.0,10.0,1.159,-0.6617896802973348,31.0,0.27493048827503735,-0.7141811329852518,0.9891116212602891
172,V1,d09172021,59tg8,1.0,deliberation,3.0,26.0,62.0,64.0,Mona1n.jpg,Vincb1.jpg,14.0,12.0,0.0,1.0,1.0,62.0,64.0,1.055,-0.8632483812513331,2.0,-0.26748556209350827,-0.33129921507804305,0.06381365298453479
173,V1,d09172021,59tg8,1.0,deliberation,3.0,27.0,24.0,16.0,Lewa1n.jpg,Vincc1.jpg,0.0,0.0,0.0,1.0,0.0,16.0,24.0,1.099,-0.7780158539246415,0.0,-0.7141811329852518,-0.7141811329852518,0.0
174,V1,d09172021,59tg8,1.0,deliberation,3.0,28.0,34.0,51.0,Lasb1n.jpg,Lewic1.jpg,0.0,0.0,0.0,1.0,1.0,34.0,51.0,1.044,-0.8845565130830058,0.0,-0.7141811329852518,-0.7141811329852518,0.0
175,V1,d09172021,59tg8,0.0,deliberation,3.0,29.0,60.0,4.0,Kupc1n.jpg,Krasb1.jpg,16.0,0.0,0.0,-1.0,1.0,60.0,4.0,1.014,-0.9426695998966592,16.0,-0.2036719091089735,-0.7141811329852518,0.5105092238762783
176,V1,d09172021,59tg8,1.0,deliberation,3.0,30.0,43.0,42.0,Clifb1.jpg,Mackc1.jpg,0.0,0.0,0.0,-1.0,0.0,42.0,43.0,1.07,-0.8341918378445062,0.0,-0.7141811329852518,-0.7141811329852518,0.0
177,V1,d09172021,59tg8,0.0,deliberation,3.0,31.0,31.0,50.0,Picac1.jpg,Klic1n.jpg,31.0,0.0,0.0,1.0,1.0,31.0,50.0,1.056,-0.8613112783575444,31.0,0.27493048827503735,-0.7141811329852518,0.9891116212602891
178,V1,d09172021,59tg8,0.0,deliberation,3.0,32.0,3.0,48.0,Klib1n.jpg,Maca1n.jpg,11.0,0.0,0.0,1.0,1.0,3.0,48.0,1.107,-0.7625190307743339,11.0,-0.36320604157031045,-0.7141811329852518,0.3509750914149413
179,V1,d09172021,59tg8,1.0,deliberation,3.0,33.0,56.0,44.0,Clib1n.jpg,Mackb1.jpg,11.0,23.0,0.0,-1.0,0.0,44.0,56.0,1.002,-0.9659148346221205,-12.0,-0.36320604157031045,0.01967587633689824,-0.3828819179072087
180,V1,d09172021,59tg8,0.0,deliberation,3.0,34.0,53.0,63.0,Macc1n.jpg,Lewia1.jpg,18.0,0.0,0.0,-1.0,1.0,53.0,63.0,1.077,-0.8206321175879873,18.0,-0.13985825612443872,-0.7141811329852518,0.5743228768608131
181,V1,d09172021,59tg8,0.0,deliberation,3.0,35.0,37.0,39.0,Deka1n.jpg,Kupb1n.jpg,0.0,0.0,0.0,1.0,0.0,39.0,37.0,1.057,-0.8593741754637563,0.0,-0.7141811329852518,-0.7141811329852518,0.0
182,V1,d09172021,VIK7A,0.0,deliberation,1.0,0.0,55.0,68.0,Clia1n.jpg,Mondb1.jpg,50.0,49.0,0.0,1.0,1.0,55.0,68.0,1.922,0.6336187038428894,1.0,-0.2727383429306367,-0.3176952126444779,0.04495686971384122
183,V1,d09172021,VIK7A,0.0,deliberation,1.0,1.0,21.0,7.0,Kupkc1.jpg,Macb1n.jpg,63.0,50.0,0.0,-1.0,1.0,21.0,7.0,1.44,-0.10780362733802741,13.0,0.3117009633492988,-0.2727383429306367,0.5844393062799356
184,V1,d09172021,VIK7A,1.0,deliberation,1.0,2.0,2.0,11.0,Dekb1n.jpg,Clifa1.jpg,44.0,37.0,1.0,-1.0,0.0,11.0,2.0,1.743,0.358277215707238,7.0,-0.5424795612136839,-0.8571776492105723,0.31469808799688836
185,V1,d09172021,VIK7A,1.0,deliberation,1.0,3.0,56.0,14.0,Clib1n.jpg,Grib1n.jpg,50.0,68.0,1.0,1.0,0.0,14.0,56.0,1.16,-0.5385053964887675,-18.0,-0.2727383429306367,0.5364853119185048,-0.8092236548491415
186,V1,d09172021,VIK7A,1.0,deliberation,1.0,4.0,40.0,58.0,Vinc1n.jpg,Klinc1.jpg,41.0,64.0,1.0,1.0,0.0,58.0,40.0,2.154,0.9904858839963597,-23.0,-0.6773501703552075,0.35665783306314,-1.0340080034183474
187,V1,d09172021,VIK7A,0.0,deliberation,1.0,5.0,43.0,50.0,Clifb1.jpg,Klic1n.jpg,38.0,63.0,0.0,-1.0,0.0,50.0,43.0,1.182,-0.5046645431983522,-25.0,-0.812220779496731,0.3117009633492988,-1.1239217428460297
188,V1,d09172021,VIK7A,1.0,deliberation,1.0,6.0,57.0,60.0,Lassa1.jpg,Kupc1n.jpg,64.0,50.0,1.0,-1.0,1.0,57.0,60.0,2.675,1.7918988187375582,14.0,0.35665783306314,-0.2727383429306367,0.6293961759937767
189,V1,d09172021,VIK7A,0.0,deliberation,1.0,7.0,31.0,29.0,Picac1.jpg,Klinb1.jpg,62.0,64.0,0.0,1.0,0.0,29.0,31.0,1.81,0.4613379961825936,-2.0,0.2667440936354576,0.35665783306314,-0.08991373942768238
190,V1,d09172021,VIK7A,1.0,deliberation,1.0,8.0,34.0,66.0,Lasb1n.jpg,Vinca1.jpg,63.0,50.0,1.0,-1.0,0.0,66.0,34.0,3.317,2.7794364465760415,13.0,0.3117009633492988,-0.2727383429306367,0.5844393062799356
191,V1,d09172021,VIK7A,0.0,deliberation,1.0,9.0,23.0,36.0,Rohlb1.jpg,Gustb1.jpg,50.0,50.0,0.0,1.0,0.0,36.0,23.0,1.426,-0.12933871579556444,0.0,-0.2727383429306367,-0.2727383429306367,0.0
192,V1,d09172021,VIK7A,1.0,deliberation,1.0,10.0,32.0,48.0,Kupkb1.jpg,Maca1n.jpg,50.0,65.0,1.0,1.0,1.0,32.0,48.0,2.896,2.131845572245821,-15.0,-0.2727383429306367,0.4016147027769812,-0.6743530457076179
193,V1,d09172021,VIK7A,0.0,deliberation,1.0,11.0,59.0,20.0,Macka1.jpg,Picb1n.jpg,63.0,63.0,0.0,-1.0,0.0,20.0,59.0,2.613,1.6965291412827517,0.0,0.3117009633492988,0.3117009633492988,0.0
194,V1,d09172021,VIK7A,1.0,deliberation,2.0,12.0,2.0,11.0,Dekb1n.jpg,Clifa1.jpg,44.0,37.0,0.0,-1.0,0.0,11.0,2.0,1.463,-0.07242455344350214,7.0,-0.5424795612136839,-0.8571776492105723,0.31469808799688836
195,V1,d09172021,VIK7A,0.0,deliberation,2.0,13.0,23.0,36.0,Rohlb1.jpg,Gustb1.jpg,50.0,50.0,1.0,1.0,0.0,36.0,23.0,0.884,-0.9630542832230684,0.0,-0.2727383429306367,-0.2727383429306367,0.0
196,V1,d09172021,VIK7A,0.0,deliberation,2.0,14.0,55.0,68.0,Clia1n.jpg,Mondb1.jpg,50.0,49.0,1.0,1.0,1.0,55.0,68.0,1.562,0.07985928636336664,1.0,-0.2727383429306367,-0.3176952126444779,0.04495686971384122
197,V1,d09172021,VIK7A,1.0,deliberation,2.0,15.0,57.0,60.0,Lassa1.jpg,Kupc1n.jpg,64.0,50.0,0.0,-1.0,1.0,57.0,60.0,0.996,-0.7907735755627724,14.0,0.35665783306314,-0.2727383429306367,0.6293961759937767
198,V1,d09172021,VIK7A,0.0,deliberation,2.0,16.0,43.0,50.0,Clifb1.jpg,Klic1n.jpg,38.0,63.0,1.0,-1.0,0.0,50.0,43.0,1.269,-0.37083935064080087,-25.0,-0.812220779496731,0.3117009633492988,-1.1239217428460297
199,V1,d09172021,VIK7A,0.0,deliberation,2.0,17.0,31.0,29.0,Picac1.jpg,Klinb1.jpg,62.0,64.0,1.0,1.0,0.0,29.0,31.0,1.183,-0.5031263225942423,-2.0,0.2667440936354576,0.35665783306314,-0.08991373942768238
200,V1,d09172021,VIK7A,1.0,deliberation,2.0,18.0,32.0,48.0,Kupkb1.jpg,Maca1n.jpg,50.0,65.0,0.0,1.0,1.0,32.0,48.0,1.147,-0.5585022643421946,-15.0,-0.2727383429306367,0.4016147027769812,-0.6743530457076179
201,V1,d09172021,VIK7A,1.0,deliberation,2.0,19.0,34.0,66.0,Lasb1n.jpg,Vinca1.jpg,63.0,50.0,0.0,-1.0,0.0,66.0,34.0,1.03,-0.7384740750230395,13.0,0.3117009633492988,-0.2727383429306367,0.5844393062799356
202,V1,d09172021,VIK7A,1.0,deliberation,2.0,20.0,56.0,14.0,Clib1n.jpg,Grib1n.jpg,50.0,68.0,0.0,1.0,0.0,14.0,56.0,1.086,-0.6523337211928915,-18.0,-0.2727383429306367,0.5364853119185048,-0.8092236548491415
203,V1,d09172021,VIK7A,0.0,deliberation,2.0,21.0,21.0,7.0,Kupkc1.jpg,Macb1n.jpg,63.0,50.0,1.0,-1.0,1.0,21.0,7.0,1.422,-0.1354915982120036,13.0,0.3117009633492988,-0.2727383429306367,0.5844393062799356
204,V1,d09172021,VIK7A,1.0,deliberation,2.0,22.0,40.0,58.0,Vinc1n.jpg,Klinc1.jpg,41.0,64.0,0.0,1.0,0.0,58.0,40.0,0.801,-1.0907265933641805,-23.0,-0.6773501703552075,0.35665783306314,-1.0340080034183474
205,V1,d09172021,VIK7A,0.0,deliberation,2.0,23.0,59.0,20.0,Macka1.jpg,Picb1n.jpg,63.0,63.0,1.0,-1.0,0.0,20.0,59.0,1.706,0.3013630533551757,0.0,0.3117009633492988,0.3117009633492988,0.0
206,V1,d09172021,VIK7A,1.0,deliberation,3.0,24.0,40.0,58.0,Vinc1n.jpg,Klinc1.jpg,41.0,64.0,0.0,1.0,0.0,58.0,40.0,2.77,1.938029776127988,-23.0,-0.6773501703552075,0.35665783306314,-1.0340080034183474
207,V1,d09172021,VIK7A,0.0,deliberation,3.0,25.0,55.0,68.0,Clia1n.jpg,Mondb1.jpg,50.0,49.0,0.0,1.0,1.0,55.0,68.0,1.041,-0.7215536483778321,1.0,-0.2727383429306367,-0.3176952126444779,0.04495686971384122
208,V1,d09172021,VIK7A,1.0,deliberation,3.0,26.0,56.0,14.0,Clib1n.jpg,Grib1n.jpg,50.0,68.0,0.0,1.0,0.0,14.0,56.0,1.182,-0.5046645431983522,-18.0,-0.2727383429306367,0.5364853119185048,-0.8092236548491415
209,V1,d09172021,VIK7A,0.0,deliberation,3.0,27.0,23.0,36.0,Rohlb1.jpg,Gustb1.jpg,50.0,50.0,0.0,1.0,0.0,36.0,23.0,0.847,-1.0199684455751306,0.0,-0.2727383429306367,-0.2727383429306367,0.0
210,V1,d09172021,VIK7A,0.0,deliberation,3.0,28.0,59.0,20.0,Macka1.jpg,Picb1n.jpg,63.0,63.0,0.0,-1.0,0.0,20.0,59.0,1.536,0.03986555065651218,0.0,0.3117009633492988,0.3117009633492988,0.0
211,V1,d09172021,VIK7A,1.0,deliberation,3.0,29.0,57.0,60.0,Lassa1.jpg,Kupc1n.jpg,64.0,50.0,0.0,-1.0,1.0,57.0,60.0,1.095,-0.6384897357559035,14.0,0.35665783306314,-0.2727383429306367,0.6293961759937767
212,V1,d09172021,VIK7A,1.0,deliberation,3.0,30.0,2.0,11.0,Dekb1n.jpg,Clifa1.jpg,44.0,37.0,0.0,-1.0,0.0,11.0,2.0,0.971,-0.829229090665517,7.0,-0.5424795612136839,-0.8571776492105723,0.31469808799688836
213,V1,d09172021,VIK7A,0.0,deliberation,3.0,31.0,43.0,50.0,Clifb1.jpg,Klic1n.jpg,38.0,63.0,0.0,-1.0,0.0,50.0,43.0,2.013,0.7735967788168799,-25.0,-0.812220779496731,0.3117009633492988,-1.1239217428460297
214,V1,d09172021,VIK7A,0.0,deliberation,3.0,32.0,31.0,29.0,Picac1.jpg,Klinb1.jpg,62.0,64.0,0.0,1.0,0.0,29.0,31.0,1.172,-0.52004674923945,-2.0,0.2667440936354576,0.35665783306314,-0.08991373942768238
215,V1,d09172021,VIK7A,0.0,deliberation,3.0,33.0,21.0,7.0,Kupkc1.jpg,Macb1n.jpg,63.0,50.0,0.0,-1.0,1.0,21.0,7.0,1.021,-0.7523180604600278,13.0,0.3117009633492988,-0.2727383429306367,0.5844393062799356
216,V1,d09172021,VIK7A,1.0,deliberation,3.0,34.0,34.0,66.0,Lasb1n.jpg,Vinca1.jpg,63.0,50.0,0.0,-1.0,0.0,66.0,34.0,0.983,-0.8107704434161995,13.0,0.3117009633492988,-0.2727383429306367,0.5844393062799356
217,V1,d09172021,VIK7A,1.0,deliberation,3.0,35.0,32.0,48.0,Kupkb1.jpg,Maca1n.jpg,50.0,65.0,0.0,1.0,1.0,32.0,48.0,0.845,-1.0230448867833501,-15.0,-0.2727383429306367,0.4016147027769812,-0.6743530457076179
218,V1,d09142021,eGaxL,1.0,deliberation,1.0,0.0,32.0,55.0,Kupkb1.jpg,Clia1n.jpg,6.0,9.0,1.0,-1.0,1.0,32.0,55.0,5.474,1.0685170039470708,-3.0,-0.6911865872553749,-0.5829067041344284,-0.1082798831209465
219,V1,d09142021,eGaxL,1.0,deliberation,1.0,1.0,10.0,64.0,Vinb1n.jpg,Vincb1.jpg,8.0,16.0,1.0,1.0,1.0,10.0,64.0,5.859,1.2348838699146998,-8.0,-0.6189999985080772,-0.33025364351888664,-0.28874635498919055
220,V1,d09142021,eGaxL,0.0,deliberation,1.0,2.0,67.0,60.0,Picab1.jpg,Kupc1n.jpg,18.0,6.0,0.0,-1.0,0.0,60.0,67.0,4.274,0.5499709282038115,12.0,-0.25806705477158903,-0.6911865872553749,0.4331195324837858
221,V1,d09142021,eGaxL,0.0,deliberation,1.0,3.0,37.0,22.0,Deka1n.jpg,Klina1.jpg,12.0,9.0,0.0,-1.0,1.0,37.0,22.0,7.313,1.863188865023616,3.0,-0.47462682101348197,-0.5829067041344284,0.10827988312094639
222,V1,d09142021,eGaxL,1.0,deliberation,1.0,4.0,5.0,63.0,Pica1n.jpg,Lewia1.jpg,14.0,15.0,1.0,1.0,0.0,63.0,5.0,3.323,0.13902316317727847,-1.0,-0.4024402322661843,-0.3663469378925355,-0.03609329437364883
223,V1,d09142021,eGaxL,1.0,deliberation,1.0,5.0,3.0,24.0,Klib1n.jpg,Lewa1n.jpg,22.0,17.0,1.0,-1.0,0.0,24.0,3.0,1.658,-0.5804595169164939,5.0,-0.11369387727699373,-0.29416034914523786,0.18046647186824413
224,V1,d09142021,eGaxL,1.0,deliberation,1.0,6.0,48.0,51.0,Maca1n.jpg,Lewic1.jpg,8.0,19.0,1.0,1.0,1.0,48.0,51.0,7.142,1.7892960492302017,-11.0,-0.6189999985080772,-0.2219737603979402,-0.397026238110137
225,V1,d09142021,eGaxL,0.0,deliberation,1.0,7.0,49.0,18.0,Lewc1n.jpg,Krab1n.jpg,26.0,9.0,0.0,1.0,1.0,49.0,18.0,9.568,2.8376233656911567,17.0,0.030679300217601548,-0.5829067041344284,0.6135860043520299
226,V1,d09142021,eGaxL,1.0,deliberation,1.0,8.0,13.0,34.0,Kupka1.jpg,Lasb1n.jpg,13.0,8.0,1.0,-1.0,1.0,13.0,34.0,3.317,0.13643043279856226,5.0,-0.43853352663983314,-0.6189999985080772,0.18046647186824405
227,V1,d09142021,eGaxL,0.0,deliberation,1.0,9.0,6.0,20.0,Gusc1n.jpg,Picb1n.jpg,30.0,13.0,0.0,-1.0,1.0,6.0,20.0,3.128,0.0547594258689989,17.0,0.17505247771219684,-0.43853352663983314,0.61358600435203
228,V1,d09142021,eGaxL,0.0,deliberation,1.0,10.0,52.0,66.0,Dekoa1.jpg,Vinca1.jpg,12.0,23.0,0.0,1.0,1.0,52.0,66.0,4.799,0.7768348363414876,-11.0,-0.47462682101348197,-0.07760058290334491,-0.39702623811013704
229,V1,d09142021,eGaxL,0.0,deliberation,1.0,11.0,56.0,0.0,Clib1n.jpg,Monb1n.jpg,11.0,25.0,0.0,1.0,0.0,0.0,56.0,3.987,0.42595199175521536,-14.0,-0.5107201153871308,-0.0054139941560472716,-0.5053061212310835
230,V1,d09142021,eGaxL,1.0,deliberation,2.0,12.0,10.0,64.0,Vinb1n.jpg,Vincb1.jpg,8.0,16.0,0.0,1.0,1.0,10.0,64.0,4.774,0.7660317930968362,-8.0,-0.6189999985080772,-0.33025364351888664,-0.28874635498919055
231,V1,d09142021,eGaxL,1.0,deliberation,2.0,13.0,32.0,55.0,Kupkb1.jpg,Clia1n.jpg,6.0,9.0,0.0,-1.0,1.0,32.0,55.0,2.111,-0.38470837332341334,-3.0,-0.6911865872553749,-0.5829067041344284,-0.1082798831209465
232,V1,d09142021,eGaxL,0.0,deliberation,2.0,14.0,37.0,22.0,Deka1n.jpg,Klina1.jpg,12.0,9.0,1.0,-1.0,1.0,37.0,22.0,2.351,-0.28099915817476157,3.0,-0.47462682101348197,-0.5829067041344284,0.10827988312094639
233,V1,d09142021,eGaxL,0.0,deliberation,2.0,15.0,52.0,66.0,Dekoa1.jpg,Vinca1.jpg,12.0,23.0,1.0,1.0,1.0,52.0,66.0,5.232,0.963943545338847,-11.0,-0.47462682101348197,-0.07760058290334491,-0.39702623811013704
234,V1,d09142021,eGaxL,1.0,deliberation,2.0,16.0,13.0,34.0,Kupka1.jpg,Lasb1n.jpg,13.0,8.0,0.0,-1.0,1.0,13.0,34.0,1.665,-0.5774346648079914,5.0,-0.43853352663983314,-0.6189999985080772,0.18046647186824405
235,V1,d09142021,eGaxL,0.0,deliberation,2.0,17.0,67.0,60.0,Picab1.jpg,Kupc1n.jpg,18.0,6.0,1.0,-1.0,0.0,60.0,67.0,1.52,-0.6400923156269687,12.0,-0.25806705477158903,-0.6911865872553749,0.4331195324837858
236,V1,d09142021,eGaxL,0.0,deliberation,2.0,18.0,56.0,0.0,Clib1n.jpg,Monb1n.jpg,11.0,25.0,1.0,1.0,0.0,0.0,56.0,2.249,-0.32507557461293857,-14.0,-0.5107201153871308,-0.0054139941560472716,-0.5053061212310835
237,V1,d09142021,eGaxL,0.0,deliberation,2.0,19.0,6.0,20.0,Gusc1n.jpg,Picb1n.jpg,30.0,13.0,1.0,-1.0,1.0,6.0,20.0,0.954,-0.8846732146858726,17.0,0.17505247771219684,-0.43853352663983314,0.61358600435203
238,V1,d09142021,eGaxL,1.0,deliberation,2.0,20.0,48.0,51.0,Maca1n.jpg,Lewic1.jpg,8.0,19.0,0.0,1.0,1.0,48.0,51.0,2.578,-0.1829075255133284,-11.0,-0.6189999985080772,-0.2219737603979402,-0.397026238110137
239,V1,d09142021,eGaxL,1.0,deliberation,2.0,21.0,3.0,24.0,Klib1n.jpg,Lewa1n.jpg,22.0,17.0,0.0,-1.0,0.0,24.0,3.0,1.291,-0.739048191747974,5.0,-0.11369387727699373,-0.29416034914523786,0.18046647186824413
240,V1,d09142021,eGaxL,0.0,deliberation,2.0,22.0,49.0,18.0,Lewc1n.jpg,Krab1n.jpg,26.0,9.0,1.0,1.0,1.0,49.0,18.0,1.692,-0.5657673781037682,17.0,0.030679300217601548,-0.5829067041344284,0.6135860043520299
241,V1,d09142021,eGaxL,1.0,deliberation,2.0,23.0,5.0,63.0,Pica1n.jpg,Lewia1.jpg,14.0,15.0,0.0,1.0,0.0,63.0,5.0,2.439,-0.2429724459535892,-1.0,-0.4024402322661843,-0.3663469378925355,-0.03609329437364883
242,V1,d09142021,eGaxL,1.0,deliberation,3.0,24.0,10.0,64.0,Vinb1n.jpg,Vincb1.jpg,8.0,16.0,0.0,1.0,1.0,10.0,64.0,7.483,1.9366495590872441,-8.0,-0.6189999985080772,-0.33025364351888664,-0.28874635498919055
243,V1,d09142021,eGaxL,0.0,deliberation,3.0,25.0,49.0,18.0,Lewc1n.jpg,Krab1n.jpg,26.0,9.0,0.0,1.0,1.0,49.0,18.0,1.229,-0.765839738994709,17.0,0.030679300217601548,-0.5829067041344284,0.6135860043520299
244,V1,d09142021,eGaxL,0.0,deliberation,3.0,26.0,52.0,66.0,Dekoa1.jpg,Vinca1.jpg,12.0,23.0,0.0,1.0,1.0,52.0,66.0,0.801,-0.9507878393431382,-11.0,-0.47462682101348197,-0.07760058290334491,-0.39702623811013704
245,V1,d09142021,eGaxL,1.0,deliberation,3.0,27.0,32.0,55.0,Kupkb1.jpg,Clia1n.jpg,6.0,9.0,0.0,-1.0,1.0,32.0,55.0,0.759,-0.9689369519941523,-3.0,-0.6911865872553749,-0.5829067041344284,-0.1082798831209465
246,V1,d09142021,eGaxL,0.0,deliberation,3.0,28.0,37.0,22.0,Deka1n.jpg,Klina1.jpg,12.0,9.0,0.0,-1.0,1.0,37.0,22.0,2.38,-0.2684676280109662,3.0,-0.47462682101348197,-0.5829067041344284,0.10827988312094639
247,V1,d09142021,eGaxL,1.0,deliberation,3.0,29.0,48.0,51.0,Maca1n.jpg,Lewic1.jpg,8.0,19.0,0.0,1.0,1.0,48.0,51.0,0.974,-0.8760307800901518,-11.0,-0.6189999985080772,-0.2219737603979402,-0.397026238110137
248,V1,d09142021,eGaxL,0.0,deliberation,3.0,30.0,56.0,0.0,Clib1n.jpg,Monb1n.jpg,11.0,25.0,0.0,1.0,0.0,0.0,56.0,1.519,-0.6405244373567547,-14.0,-0.5107201153871308,-0.0054139941560472716,-0.5053061212310835
249,V1,d09142021,eGaxL,1.0,deliberation,3.0,31.0,3.0,24.0,Klib1n.jpg,Lewa1n.jpg,22.0,17.0,0.0,-1.0,0.0,24.0,3.0,0.777,-0.9611587608580033,5.0,-0.11369387727699373,-0.29416034914523786,0.18046647186824413
250,V1,d09142021,eGaxL,0.0,deliberation,3.0,32.0,67.0,60.0,Picab1.jpg,Kupc1n.jpg,18.0,6.0,0.0,-1.0,0.0,60.0,67.0,0.881,-0.9162181009602544,12.0,-0.25806705477158903,-0.6911865872553749,0.4331195324837858
251,V1,d09142021,eGaxL,0.0,deliberation,3.0,33.0,6.0,20.0,Gusc1n.jpg,Picb1n.jpg,30.0,13.0,0.0,-1.0,1.0,6.0,20.0,1.097,-0.8228798073264676,17.0,0.17505247771219684,-0.43853352663983314,0.61358600435203
252,V1,d09142021,eGaxL,1.0,deliberation,3.0,34.0,5.0,63.0,Pica1n.jpg,Lewia1.jpg,14.0,15.0,0.0,1.0,0.0,63.0,5.0,0.811,-0.9464666220452778,-1.0,-0.4024402322661843,-0.3663469378925355,-0.03609329437364883
253,V1,d09142021,eGaxL,1.0,deliberation,3.0,35.0,13.0,34.0,Kupka1.jpg,Lasb1n.jpg,13.0,8.0,0.0,-1.0,1.0,13.0,34.0,0.637,-1.0216558030280503,5.0,-0.43853352663983314,-0.6189999985080772,0.18046647186824405
254,V1,d09172021,NtP4V,0.0,deliberation,1.0,0.0,69.0,48.0,Picad1.jpg,Maca1n.jpg,42.0,64.0,0.0,-1.0,0.0,48.0,69.0,1.711,0.2314417648846925,-22.0,-0.5228947651414763,0.42003022117921845,-0.9429249863206948
255,V1,d09172021,NtP4V,0.0,deliberation,1.0,1.0,5.0,66.0,Pica1n.jpg,Vinca1.jpg,60.0,50.0,0.0,-1.0,1.0,5.0,66.0,1.97,0.6386814357253932,10.0,0.24858931457545577,-0.18001295193395092,0.4286022665094067
256,V1,d09172021,NtP4V,0.0,deliberation,1.0,2.0,20.0,65.0,Picb1n.jpg,Roha1n.jpg,70.0,70.0,0.0,1.0,0.0,65.0,20.0,1.823,0.4075454063293197,0.0,0.6771915810848624,0.6771915810848624,0.0
257,V1,d09172021,NtP4V,1.0,deliberation,1.0,3.0,14.0,6.0,Grib1n.jpg,Gusc1n.jpg,68.0,56.0,1.0,1.0,1.0,14.0,6.0,2.7,1.786499812998411,12.0,0.5914711277829812,0.07714840797169309,0.5143227198112881
258,V1,d09172021,NtP4V,0.0,deliberation,1.0,4.0,19.0,64.0,Picc1n.jpg,Vincb1.jpg,70.0,61.0,0.0,-1.0,1.0,19.0,64.0,2.722,1.8210915997107484,9.0,0.6771915810848624,0.29144954122639644,0.385742039858466
259,V1,d09172021,NtP4V,1.0,deliberation,1.0,5.0,16.0,31.0,Vincc1.jpg,Picac1.jpg,58.0,65.0,1.0,-1.0,0.0,31.0,16.0,1.52,-0.06887783793605605,-7.0,0.16286886127357442,0.4628904478301591,-0.3000215865565847
260,V1,d09172021,NtP4V,1.0,deliberation,1.0,6.0,43.0,22.0,Clifb1.jpg,Klina1.jpg,65.0,55.0,1.0,-1.0,1.0,43.0,22.0,1.581,0.027035752493606985,10.0,0.4628904478301591,0.03428818132075241,0.4286022665094067
261,V1,d09172021,NtP4V,0.0,deliberation,1.0,7.0,39.0,38.0,Kupb1n.jpg,Krasa1.jpg,59.0,69.0,0.0,1.0,1.0,39.0,38.0,3.279,2.6968927451094755,-10.0,0.20572908792451508,0.6343313544339217,-0.4286022665094067
262,V1,d09172021,NtP4V,1.0,deliberation,1.0,8.0,10.0,11.0,Vinb1n.jpg,Clifa1.jpg,44.0,66.0,1.0,1.0,0.0,11.0,10.0,2.375,1.2754847820206976,-22.0,-0.43717431183959493,0.5057506744810998,-0.9429249863206948
263,V1,d09172021,NtP4V,1.0,deliberation,1.0,9.0,59.0,56.0,Macka1.jpg,Clib1n.jpg,66.0,56.0,1.0,1.0,1.0,59.0,56.0,1.545,-0.029568989399309006,10.0,0.5057506744810998,0.07714840797169309,0.4286022665094067
264,V1,d09172021,NtP4V,0.0,deliberation,1.0,10.0,29.0,67.0,Klinb1.jpg,Picab1.jpg,41.0,60.0,0.0,1.0,0.0,67.0,29.0,1.612,0.07577872467917371,-19.0,-0.565754991792417,0.24858931457545577,-0.8143443063678727
265,V1,d09172021,NtP4V,1.0,deliberation,1.0,11.0,49.0,40.0,Lewc1n.jpg,Vinc1n.jpg,34.0,36.0,1.0,-1.0,1.0,49.0,40.0,2.478,1.437437237992096,-2.0,-0.8657765783490017,-0.7800561250471203,-0.08572045330188138
266,V1,d09172021,NtP4V,0.0,deliberation,2.0,12.0,5.0,66.0,Pica1n.jpg,Vinca1.jpg,60.0,50.0,1.0,-1.0,1.0,5.0,66.0,1.193,-0.5830375767967091,10.0,0.24858931457545577,-0.18001295193395092,0.4286022665094067
267,V1,d09172021,NtP4V,1.0,deliberation,2.0,13.0,16.0,31.0,Vincc1.jpg,Picac1.jpg,58.0,65.0,0.0,-1.0,0.0,31.0,16.0,1.107,-0.7182600157631195,-7.0,0.16286886127357442,0.4628904478301591,-0.3000215865565847
268,V1,d09172021,NtP4V,1.0,deliberation,2.0,14.0,49.0,40.0,Lewc1n.jpg,Vinc1n.jpg,34.0,36.0,0.0,-1.0,1.0,49.0,40.0,1.224,-0.5342946046111428,-2.0,-0.8657765783490017,-0.7800561250471203,-0.08572045330188138
269,V1,d09172021,NtP4V,1.0,deliberation,2.0,15.0,59.0,56.0,Macka1.jpg,Clib1n.jpg,66.0,56.0,0.0,1.0,1.0,59.0,56.0,1.011,-0.8692059941442288,10.0,0.5057506744810998,0.07714840797169309,0.4286022665094067
270,V1,d09172021,NtP4V,0.0,deliberation,2.0,16.0,69.0,48.0,Picad1.jpg,Maca1n.jpg,42.0,64.0,1.0,-1.0,1.0,69.0,48.0,2.619,1.6591391437393503,-22.0,-0.5228947651414763,0.42003022117921845,-0.9429249863206948
271,V1,d09172021,NtP4V,1.0,deliberation,2.0,17.0,14.0,6.0,Grib1n.jpg,Gusc1n.jpg,68.0,56.0,0.0,1.0,1.0,14.0,6.0,2.043,0.7534632734526951,12.0,0.5914711277829812,0.07714840797169309,0.5143227198112881
272,V1,d09172021,NtP4V,1.0,deliberation,2.0,18.0,10.0,11.0,Vinb1n.jpg,Clifa1.jpg,44.0,66.0,0.0,1.0,0.0,11.0,10.0,1.238,-0.5122816494305643,-22.0,-0.43717431183959493,0.5057506744810998,-0.9429249863206948
273,V1,d09172021,NtP4V,1.0,deliberation,2.0,19.0,43.0,22.0,Clifb1.jpg,Klina1.jpg,65.0,55.0,0.0,-1.0,1.0,43.0,22.0,0.936,-0.9871325397544701,10.0,0.4628904478301591,0.03428818132075241,0.4286022665094067
274,V1,d09172021,NtP4V,0.0,deliberation,2.0,20.0,39.0,38.0,Kupb1n.jpg,Krasa1.jpg,59.0,69.0,1.0,1.0,1.0,39.0,38.0,2.286,1.1355452812298776,-10.0,0.20572908792451508,0.6343313544339217,-0.4286022665094067
275,V1,d09172021,NtP4V,0.0,deliberation,2.0,21.0,19.0,64.0,Picc1n.jpg,Vincb1.jpg,70.0,61.0,1.0,-1.0,1.0,19.0,64.0,1.12,-0.6978194145240108,9.0,0.6771915810848624,0.29144954122639644,0.385742039858466
276,V1,d09172021,NtP4V,0.0,deliberation,2.0,22.0,29.0,67.0,Klinb1.jpg,Picab1.jpg,41.0,60.0,1.0,1.0,0.0,67.0,29.0,1.117,-0.7025364763484206,-19.0,-0.565754991792417,0.24858931457545577,-0.8143443063678727
277,V1,d09172021,NtP4V,0.0,deliberation,2.0,23.0,20.0,65.0,Picb1n.jpg,Roha1n.jpg,70.0,70.0,1.0,1.0,1.0,20.0,65.0,1.118,-0.7009641224069506,0.0,0.6771915810848624,0.6771915810848624,0.0
278,V1,d09172021,NtP4V,0.0,deliberation,3.0,24.0,29.0,67.0,Klinb1.jpg,Picab1.jpg,41.0,60.0,0.0,1.0,0.0,67.0,29.0,1.602,0.06005518526447482,-19.0,-0.565754991792417,0.24858931457545577,-0.8143443063678727
279,V1,d09172021,NtP4V,1.0,deliberation,3.0,25.0,43.0,22.0,Clifb1.jpg,Klina1.jpg,65.0,55.0,0.0,-1.0,1.0,43.0,22.0,0.829,-1.1553744114917481,10.0,0.4628904478301591,0.03428818132075241,0.4286022665094067
280,V1,d09172021,NtP4V,1.0,deliberation,3.0,26.0,14.0,6.0,Grib1n.jpg,Gusc1n.jpg,68.0,56.0,0.0,1.0,1.0,14.0,6.0,1.027,-0.8440483310807106,12.0,0.5914711277829812,0.07714840797169309,0.5143227198112881
281,V1,d09172021,NtP4V,0.0,deliberation,3.0,27.0,69.0,48.0,Picad1.jpg,Maca1n.jpg,42.0,64.0,0.0,-1.0,1.0,69.0,48.0,1.207,-0.5610246216161306,-22.0,-0.5228947651414763,0.42003022117921845,-0.9429249863206948
282,V1,d09172021,NtP4V,1.0,deliberation,3.0,28.0,10.0,11.0,Vinb1n.jpg,Clifa1.jpg,44.0,66.0,0.0,1.0,0.0,11.0,10.0,1.138,-0.6695170435775532,-22.0,-0.43717431183959493,0.5057506744810998,-0.9429249863206948
283,V1,d09172021,NtP4V,1.0,deliberation,3.0,29.0,49.0,40.0,Lewc1n.jpg,Vinc1n.jpg,34.0,36.0,0.0,-1.0,1.0,49.0,40.0,0.934,-0.9902772476374099,-2.0,-0.8657765783490017,-0.7800561250471203,-0.08572045330188138
284,V1,d09172021,NtP4V,0.0,deliberation,3.0,30.0,5.0,66.0,Pica1n.jpg,Vinca1.jpg,60.0,50.0,0.0,-1.0,1.0,5.0,66.0,1.028,-0.8424759771392405,10.0,0.24858931457545577,-0.18001295193395092,0.4286022665094067
285,V1,d09172021,NtP4V,1.0,deliberation,3.0,31.0,59.0,56.0,Macka1.jpg,Clib1n.jpg,66.0,56.0,0.0,1.0,1.0,59.0,56.0,1.034,-0.8330418534904213,10.0,0.5057506744810998,0.07714840797169309,0.4286022665094067
286,V1,d09172021,NtP4V,0.0,deliberation,3.0,32.0,39.0,38.0,Kupb1n.jpg,Krasa1.jpg,59.0,69.0,0.0,1.0,1.0,39.0,38.0,1.0,-0.8865018875003974,-10.0,0.20572908792451508,0.6343313544339217,-0.4286022665094067
287,V1,d09172021,NtP4V,0.0,deliberation,3.0,33.0,20.0,65.0,Picb1n.jpg,Roha1n.jpg,70.0,70.0,0.0,1.0,0.0,65.0,20.0,2.014,0.7078650091500679,0.0,0.6771915810848624,0.6771915810848624,0.0
288,V1,d09172021,NtP4V,0.0,deliberation,3.0,34.0,19.0,64.0,Picc1n.jpg,Vincb1.jpg,70.0,61.0,0.0,-1.0,1.0,19.0,64.0,1.139,-0.6679446896360831,9.0,0.6771915810848624,0.29144954122639644,0.385742039858466
289,V1,d09172021,NtP4V,1.0,deliberation,3.0,35.0,16.0,31.0,Vincc1.jpg,Picac1.jpg,58.0,65.0,0.0,-1.0,0.0,31.0,16.0,1.017,-0.8597718704954095,-7.0,0.16286886127357442,0.4628904478301591,-0.3000215865565847
290,V1,d09172021,UmcnU,1.0,deliberation,1.0,0.0,1.0,6.0,Monda1.jpg,Gusc1n.jpg,76.0,36.0,1.0,1.0,1.0,1.0,6.0,4.862,1.6299266941574608,40.0,0.5825880068789574,-0.6580608098996564,1.2406488167786138
291,V1,d09172021,UmcnU,0.0,deliberation,1.0,1.0,3.0,14.0,Klib1n.jpg,Grib1n.jpg,74.0,72.0,0.0,-1.0,0.0,14.0,3.0,4.086,1.1028804626138027,2.0,0.5205555660400266,0.45852312520109595,0.06203244083893067
292,V1,d09172021,UmcnU,0.0,deliberation,1.0,2.0,24.0,44.0,Lewa1n.jpg,Mackb1.jpg,39.0,75.0,0.0,-1.0,1.0,24.0,44.0,7.4,3.353693879283498,-36.0,-0.5650121486412605,0.551571786459492,-1.1165839351007525
293,V1,d09172021,UmcnU,1.0,deliberation,1.0,3.0,43.0,20.0,Clifb1.jpg,Picb1n.jpg,74.0,38.0,1.0,-1.0,1.0,43.0,20.0,2.979,0.35102456271840343,36.0,0.5205555660400266,-0.5960283690607258,1.1165839351007523
294,V1,d09172021,UmcnU,0.0,deliberation,1.0,4.0,42.0,66.0,Mackc1.jpg,Vinca1.jpg,60.0,78.0,0.0,-1.0,0.0,66.0,42.0,3.366,0.6138684952021608,-18.0,0.08632848016751182,0.6446204477178881,-0.5582919675503762
295,V1,d09172021,UmcnU,0.0,deliberation,1.0,5.0,46.0,34.0,Lewb1n.jpg,Lasb1n.jpg,69.0,76.0,0.0,1.0,0.0,34.0,46.0,3.255,0.5384791502261993,-7.0,0.36547446394269995,0.5825880068789574,-0.21711354293625745
296,V1,d09172021,UmcnU,1.0,deliberation,1.0,6.0,29.0,41.0,Klinb1.jpg,Picae1.jpg,74.0,74.0,1.0,1.0,0.0,41.0,29.0,3.258,0.5405167000904145,0.0,0.5205555660400266,0.5205555660400266,0.0
297,V1,d09172021,UmcnU,1.0,deliberation,1.0,7.0,7.0,2.0,Macb1n.jpg,Dekb1n.jpg,53.0,58.0,1.0,1.0,0.0,2.0,7.0,3.33,0.5894178968315787,-5.0,-0.1307850627687456,0.02429603932858113,-0.15508110209732673
298,V1,d09172021,UmcnU,1.0,deliberation,1.0,8.0,36.0,63.0,Gustb1.jpg,Lewia1.jpg,72.0,82.0,1.0,-1.0,1.0,36.0,63.0,4.821,1.60208017934652,-10.0,0.45852312520109595,0.7686853293957494,-0.31016220419465346
299,V1,d09172021,UmcnU,1.0,deliberation,1.0,9.0,15.0,26.0,Lassc1.jpg,Klid1n.jpg,70.0,77.0,1.0,-1.0,0.0,26.0,15.0,3.638,0.7986063495576698,-7.0,0.3964906843621653,0.6136042272984227,-0.2171135429362574
300,V1,d09172021,UmcnU,0.0,deliberation,1.0,10.0,19.0,60.0,Picc1n.jpg,Kupc1n.jpg,69.0,69.0,0.0,1.0,0.0,60.0,19.0,5.641,2.1590104755653345,0.0,0.36547446394269995,0.36547446394269995,0.0
301,V1,d09172021,UmcnU,0.0,deliberation,1.0,11.0,5.0,23.0,Pica1n.jpg,Rohlb1.jpg,56.0,35.0,0.0,1.0,1.0,5.0,23.0,1.504,-0.6507707871873905,21.0,-0.037736401510349564,-0.6890770303191218,0.6513406288087723
302,V1,d09172021,UmcnU,1.0,deliberation,2.0,12.0,29.0,41.0,Klinb1.jpg,Picae1.jpg,74.0,74.0,0.0,1.0,0.0,41.0,29.0,2.796,0.22673402100127762,0.0,0.5205555660400266,0.5205555660400266,0.0
303,V1,d09172021,UmcnU,1.0,deliberation,2.0,13.0,43.0,20.0,Clifb1.jpg,Picb1n.jpg,74.0,38.0,0.0,-1.0,1.0,43.0,20.0,1.692,-0.5230843290299063,36.0,0.5205555660400266,-0.5960283690607258,1.1165839351007523
304,V1,d09172021,UmcnU,1.0,deliberation,2.0,14.0,1.0,6.0,Monda1.jpg,Gusc1n.jpg,76.0,36.0,0.0,1.0,1.0,1.0,6.0,2.08,-0.2595612132580771,40.0,0.5825880068789574,-0.6580608098996564,1.2406488167786138
305,V1,d09172021,UmcnU,0.0,deliberation,2.0,15.0,42.0,66.0,Mackc1.jpg,Vinca1.jpg,60.0,78.0,1.0,-1.0,0.0,66.0,42.0,1.964,-0.33834647467439716,-18.0,0.08632848016751182,0.6446204477178881,-0.5582919675503762
306,V1,d09172021,UmcnU,0.0,deliberation,2.0,16.0,46.0,34.0,Lewb1n.jpg,Lasb1n.jpg,69.0,76.0,1.0,1.0,0.0,34.0,46.0,1.859,-0.40966071992192826,-7.0,0.36547446394269995,0.5825880068789574,-0.21711354293625745
307,V1,d09172021,UmcnU,1.0,deliberation,2.0,17.0,36.0,63.0,Gustb1.jpg,Lewia1.jpg,72.0,82.0,0.0,-1.0,1.0,36.0,63.0,1.649,-0.5522892104169904,-10.0,0.45852312520109595,0.7686853293957494,-0.31016220419465346
308,V1,d09172021,UmcnU,0.0,deliberation,2.0,18.0,5.0,23.0,Pica1n.jpg,Rohlb1.jpg,56.0,35.0,1.0,1.0,1.0,5.0,23.0,3.197,0.49908651951803934,21.0,-0.037736401510349564,-0.6890770303191218,0.6513406288087723
309,V1,d09172021,UmcnU,1.0,deliberation,2.0,19.0,15.0,26.0,Lassc1.jpg,Klid1n.jpg,70.0,77.0,0.0,-1.0,,,,,,-7.0,0.3964906843621653,0.6136042272984227,-0.2171135429362574
310,V1,d09172021,UmcnU,1.0,deliberation,2.0,19.0,15.0,26.0,Lassc1.jpg,Klid1n.jpg,70.0,77.0,0.0,-1.0,0.0,26.0,15.0,0.65,-1.2307933152006434,-7.0,0.3964906843621653,0.6136042272984227,-0.2171135429362574
311,V1,d09172021,UmcnU,1.0,deliberation,2.0,20.0,7.0,2.0,Macb1n.jpg,Dekb1n.jpg,53.0,58.0,0.0,1.0,0.0,2.0,7.0,2.109,-0.2398648979039971,-5.0,-0.1307850627687456,0.02429603932858113,-0.15508110209732673
312,V1,d09172021,UmcnU,0.0,deliberation,2.0,21.0,19.0,60.0,Picc1n.jpg,Kupc1n.jpg,69.0,69.0,1.0,1.0,0.0,60.0,19.0,1.34,-0.7621568464311532,0.0,0.36547446394269995,0.36547446394269995,0.0
313,V1,d09172021,UmcnU,0.0,deliberation,2.0,22.0,3.0,14.0,Klib1n.jpg,Grib1n.jpg,74.0,72.0,1.0,-1.0,0.0,14.0,3.0,1.552,-0.6181699893599477,2.0,0.5205555660400266,0.45852312520109595,0.06203244083893067
314,V1,d09172021,UmcnU,0.0,deliberation,2.0,23.0,24.0,44.0,Lewa1n.jpg,Mackb1.jpg,39.0,75.0,1.0,-1.0,1.0,24.0,44.0,1.695,-0.5210467791656911,-36.0,-0.5650121486412605,0.551571786459492,-1.1165839351007525
315,V1,d09172021,UmcnU,0.0,deliberation,3.0,24.0,3.0,14.0,Klib1n.jpg,Grib1n.jpg,74.0,72.0,0.0,-1.0,0.0,14.0,3.0,1.777,-0.4653537495438097,2.0,0.5205555660400266,0.45852312520109595,0.06203244083893067
316,V1,d09172021,UmcnU,0.0,deliberation,3.0,25.0,42.0,66.0,Mackc1.jpg,Vinca1.jpg,60.0,78.0,0.0,-1.0,0.0,66.0,42.0,1.926,-0.36415543962112273,-18.0,0.08632848016751182,0.6446204477178881,-0.5582919675503762
317,V1,d09172021,UmcnU,1.0,deliberation,3.0,26.0,36.0,63.0,Gustb1.jpg,Lewia1.jpg,72.0,82.0,0.0,-1.0,1.0,36.0,63.0,1.071,-0.9448571509224473,-10.0,0.45852312520109595,0.7686853293957494,-0.31016220419465346
318,V1,d09172021,UmcnU,1.0,deliberation,3.0,27.0,1.0,6.0,Monda1.jpg,Gusc1n.jpg,76.0,36.0,0.0,1.0,1.0,1.0,6.0,1.324,-0.7730237790403008,40.0,0.5825880068789574,-0.6580608098996564,1.2406488167786138
319,V1,d09172021,UmcnU,0.0,deliberation,3.0,28.0,24.0,44.0,Lewa1n.jpg,Mackb1.jpg,39.0,75.0,0.0,-1.0,1.0,24.0,44.0,1.283,-0.8008702938512416,-36.0,-0.5650121486412605,0.551571786459492,-1.1165839351007525
320,V1,d09172021,UmcnU,1.0,deliberation,3.0,29.0,7.0,2.0,Macb1n.jpg,Dekb1n.jpg,53.0,58.0,0.0,1.0,0.0,2.0,7.0,1.289,-0.7967951941228113,-5.0,-0.1307850627687456,0.02429603932858113,-0.15508110209732673
321,V1,d09172021,UmcnU,1.0,deliberation,3.0,30.0,15.0,26.0,Lassc1.jpg,Klid1n.jpg,70.0,77.0,0.0,-1.0,0.0,26.0,15.0,2.439,-0.01573441284032791,-7.0,0.3964906843621653,0.6136042272984227,-0.2171135429362574
322,V1,d09172021,UmcnU,1.0,deliberation,3.0,31.0,29.0,41.0,Klinb1.jpg,Picae1.jpg,74.0,74.0,0.0,1.0,0.0,41.0,29.0,1.451,-0.6867675014551918,0.0,0.5205555660400266,0.5205555660400266,0.0
323,V1,d09172021,UmcnU,0.0,deliberation,3.0,32.0,46.0,34.0,Lewb1n.jpg,Lasb1n.jpg,69.0,76.0,0.0,1.0,0.0,34.0,46.0,1.375,-0.738385431348643,-7.0,0.36547446394269995,0.5825880068789574,-0.21711354293625745
324,V1,d09172021,UmcnU,0.0,deliberation,3.0,33.0,5.0,23.0,Pica1n.jpg,Rohlb1.jpg,56.0,35.0,0.0,1.0,1.0,5.0,23.0,1.347,-0.7574025634146513,21.0,-0.037736401510349564,-0.6890770303191218,0.6513406288087723
325,V1,d09172021,UmcnU,0.0,deliberation,3.0,34.0,19.0,60.0,Picc1n.jpg,Kupc1n.jpg,69.0,69.0,0.0,1.0,0.0,60.0,19.0,1.791,-0.45584518351080555,0.0,0.36547446394269995,0.36547446394269995,0.0
326,V1,d09172021,UmcnU,1.0,deliberation,3.0,35.0,43.0,20.0,Clifb1.jpg,Picb1n.jpg,74.0,38.0,0.0,-1.0,1.0,43.0,20.0,0.842,-1.1003901238908722,36.0,0.5205555660400266,-0.5960283690607258,1.1165839351007523
327,V1,d09142021,OvCTN,0.0,deliberation,1.0,0.0,8.0,4.0,Picd1n.jpg,Krasb1.jpg,78.0,73.0,0.0,1.0,0.0,4.0,8.0,1.417,-0.7274263571065652,5.0,0.7260733048411856,0.5680021934824369,0.15807111135874874
328,V1,d09142021,OvCTN,1.0,deliberation,1.0,1.0,64.0,13.0,Vincb1.jpg,Kupka1.jpg,45.0,73.0,1.0,-1.0,0.0,13.0,64.0,3.786,1.2639654651730332,-28.0,-0.31719603012655556,0.5680021934824369,-0.8851982236089924
329,V1,d09142021,OvCTN,0.0,deliberation,1.0,2.0,47.0,66.0,Vina1n.jpg,Vinca1.jpg,24.0,50.0,0.0,1.0,1.0,47.0,66.0,4.308,1.7027609616820876,-26.0,-0.9810946978333,-0.15912491876780693,-0.821969779065493
330,V1,d09142021,OvCTN,1.0,deliberation,1.0,3.0,46.0,38.0,Lewb1n.jpg,Krasa1.jpg,80.0,72.0,1.0,1.0,1.0,46.0,38.0,2.967,0.5755104620295165,8.0,0.789301749384685,0.5363879712106872,0.25291377817399785
331,V1,d09142021,OvCTN,0.0,deliberation,1.0,4.0,19.0,58.0,Picc1n.jpg,Klinc1.jpg,63.0,72.0,0.0,-1.0,1.0,19.0,58.0,3.038,0.6351933743899433,-9.0,0.2518599707649396,0.5363879712106872,-0.28452800044574755
332,V1,d09142021,OvCTN,1.0,deliberation,1.0,5.0,15.0,7.0,Lassc1.jpg,Macb1n.jpg,26.0,59.0,1.0,1.0,1.0,15.0,7.0,3.832,1.3026332675473942,-33.0,-0.9178662532898004,0.12540308167794068,-1.043269334967741
333,V1,d09142021,OvCTN,1.0,deliberation,1.0,6.0,54.0,0.0,Rohla1.jpg,Monb1n.jpg,73.0,32.0,1.0,-1.0,1.0,54.0,0.0,3.64,1.1412372228544088,41.0,0.5680021934824369,-0.7281809196593021,1.296183113141739
334,V1,d09142021,OvCTN,1.0,deliberation,1.0,7.0,55.0,20.0,Clia1n.jpg,Picb1n.jpg,66.0,24.0,1.0,1.0,1.0,55.0,20.0,3.647,1.147121453650507,42.0,0.34670263758018877,-0.9810946978333,1.3277973354134887
335,V1,d09142021,OvCTN,1.0,deliberation,1.0,8.0,27.0,21.0,Gustc1.jpg,Kupkc1.jpg,80.0,75.0,1.0,-1.0,1.0,27.0,21.0,3.579,1.0899603544884082,5.0,0.789301749384685,0.6312306380259364,0.15807111135874863
336,V1,d09142021,OvCTN,0.0,deliberation,1.0,9.0,10.0,67.0,Vinb1n.jpg,Picab1.jpg,65.0,81.0,0.0,-1.0,1.0,10.0,67.0,2.848,0.475478538495843,-16.0,0.31508841530843906,0.8209159716564347,-0.5058275563479957
337,V1,d09142021,OvCTN,0.0,deliberation,1.0,10.0,35.0,62.0,Gusa1n.jpg,Mona1n.jpg,78.0,50.0,0.0,1.0,1.0,35.0,62.0,2.126,-0.1314378379017383,28.0,0.7260733048411856,-0.15912491876780693,0.8851982236089926
338,V1,d09142021,OvCTN,0.0,deliberation,1.0,11.0,1.0,2.0,Monda1.jpg,Dekb1n.jpg,45.0,66.0,0.0,-1.0,0.0,2.0,1.0,4.254,1.6573683241121853,-21.0,-0.31719603012655556,0.34670263758018877,-0.6638986677067443
339,V1,d09142021,OvCTN,1.0,deliberation,2.0,12.0,55.0,20.0,Clia1n.jpg,Picb1n.jpg,66.0,24.0,0.0,1.0,1.0,55.0,20.0,1.458,-0.6929615767294173,42.0,0.34670263758018877,-0.9810946978333,1.3277973354134887
340,V1,d09142021,OvCTN,0.0,deliberation,2.0,13.0,1.0,2.0,Monda1.jpg,Dekb1n.jpg,45.0,66.0,1.0,-1.0,0.0,2.0,1.0,2.948,0.5595389784401064,-21.0,-0.31719603012655556,0.34670263758018877,-0.6638986677067443
341,V1,d09142021,OvCTN,0.0,deliberation,2.0,14.0,8.0,4.0,Picd1n.jpg,Krasb1.jpg,78.0,73.0,1.0,1.0,0.0,4.0,8.0,1.597,-0.5761175652068913,5.0,0.7260733048411856,0.5680021934824369,0.15807111135874874
342,V1,d09142021,OvCTN,0.0,deliberation,2.0,15.0,35.0,62.0,Gusa1n.jpg,Mona1n.jpg,78.0,50.0,1.0,1.0,1.0,35.0,62.0,2.081,-0.16926503587665673,28.0,0.7260733048411856,-0.15912491876780693,0.8851982236089926
343,V1,d09142021,OvCTN,1.0,deliberation,2.0,16.0,46.0,38.0,Lewb1n.jpg,Krasa1.jpg,80.0,72.0,0.0,1.0,1.0,46.0,38.0,2.92,0.5360020552557127,8.0,0.789301749384685,0.5363879712106872,0.25291377817399785
344,V1,d09142021,OvCTN,1.0,deliberation,2.0,17.0,15.0,7.0,Lassc1.jpg,Macb1n.jpg,26.0,59.0,0.0,1.0,1.0,15.0,7.0,0.956,-1.1149449852496194,-33.0,-0.9178662532898004,0.12540308167794068,-1.043269334967741
345,V1,d09142021,OvCTN,1.0,deliberation,2.0,18.0,54.0,0.0,Rohla1.jpg,Monb1n.jpg,73.0,32.0,0.0,-1.0,1.0,54.0,0.0,4.541,1.8986217867522217,41.0,0.5680021934824369,-0.7281809196593021,1.296183113141739
346,V1,d09142021,OvCTN,0.0,deliberation,2.0,19.0,10.0,67.0,Vinb1n.jpg,Picab1.jpg,65.0,81.0,1.0,-1.0,1.0,10.0,67.0,1.614,-0.5618272904163664,-16.0,0.31508841530843906,0.8209159716564347,-0.5058275563479957
347,V1,d09142021,OvCTN,1.0,deliberation,2.0,20.0,27.0,21.0,Gustc1.jpg,Kupkc1.jpg,80.0,75.0,0.0,-1.0,1.0,27.0,21.0,2.005,-0.23315097023429693,5.0,0.789301749384685,0.6312306380259364,0.15807111135874863
348,V1,d09142021,OvCTN,0.0,deliberation,2.0,21.0,47.0,66.0,Vina1n.jpg,Vinca1.jpg,24.0,50.0,1.0,1.0,1.0,47.0,66.0,1.393,-0.7476008626931885,-26.0,-0.9810946978333,-0.15912491876780693,-0.821969779065493
349,V1,d09142021,OvCTN,1.0,deliberation,2.0,22.0,64.0,13.0,Vincb1.jpg,Kupka1.jpg,45.0,73.0,0.0,-1.0,0.0,13.0,64.0,2.03,-0.21213586024823117,-28.0,-0.31719603012655556,0.5680021934824369,-0.8851982236089924
350,V1,d09142021,OvCTN,0.0,deliberation,2.0,23.0,19.0,58.0,Picc1n.jpg,Klinc1.jpg,63.0,72.0,1.0,-1.0,1.0,19.0,58.0,3.952,1.4035057954805104,-9.0,0.2518599707649396,0.5363879712106872,-0.28452800044574755
351,V1,d09142021,OvCTN,1.0,deliberation,3.0,24.0,27.0,21.0,Gustc1.jpg,Kupkc1.jpg,80.0,75.0,0.0,-1.0,1.0,27.0,21.0,2.075,-0.17430866227331235,5.0,0.789301749384685,0.6312306380259364,0.15807111135874863
352,V1,d09142021,OvCTN,1.0,deliberation,3.0,25.0,54.0,0.0,Rohla1.jpg,Monb1n.jpg,73.0,32.0,0.0,-1.0,1.0,54.0,0.0,1.454,-0.6963239943271878,41.0,0.5680021934824369,-0.7281809196593021,1.296183113141739
353,V1,d09142021,OvCTN,0.0,deliberation,3.0,26.0,1.0,2.0,Monda1.jpg,Dekb1n.jpg,45.0,66.0,0.0,-1.0,0.0,2.0,1.0,2.069,-0.17935228866996833,-21.0,-0.31719603012655556,0.34670263758018877,-0.6638986677067443
354,V1,d09142021,OvCTN,1.0,deliberation,3.0,27.0,46.0,38.0,Lewb1n.jpg,Krasa1.jpg,80.0,72.0,0.0,1.0,1.0,46.0,38.0,0.87,-1.1872369636016855,8.0,0.789301749384685,0.5363879712106872,0.25291377817399785
355,V1,d09142021,OvCTN,1.0,deliberation,3.0,28.0,15.0,7.0,Lassc1.jpg,Macb1n.jpg,26.0,59.0,0.0,1.0,1.0,15.0,7.0,0.709,-1.3225742719119495,-33.0,-0.9178662532898004,0.12540308167794068,-1.043269334967741
356,V1,d09142021,OvCTN,1.0,deliberation,3.0,29.0,64.0,13.0,Vincb1.jpg,Kupka1.jpg,45.0,73.0,0.0,-1.0,0.0,13.0,64.0,0.895,-1.16622185361562,-28.0,-0.31719603012655556,0.5680021934824369,-0.8851982236089924
357,V1,d09142021,OvCTN,1.0,deliberation,3.0,30.0,55.0,20.0,Clia1n.jpg,Picb1n.jpg,66.0,24.0,0.0,1.0,1.0,55.0,20.0,1.341,-0.7913122914642055,42.0,0.34670263758018877,-0.9810946978333,1.3277973354134887
358,V1,d09142021,OvCTN,0.0,deliberation,3.0,31.0,19.0,58.0,Picc1n.jpg,Klinc1.jpg,63.0,72.0,0.0,-1.0,1.0,19.0,58.0,0.979,-1.0956110840624387,-9.0,0.2518599707649396,0.5363879712106872,-0.28452800044574755
359,V1,d09142021,OvCTN,0.0,deliberation,3.0,32.0,47.0,66.0,Vina1n.jpg,Vinca1.jpg,24.0,50.0,0.0,1.0,1.0,47.0,66.0,0.635,-1.3847789974707045,-26.0,-0.9810946978333,-0.15912491876780693,-0.821969779065493
360,V1,d09142021,OvCTN,0.0,deliberation,3.0,33.0,35.0,62.0,Gusa1n.jpg,Mona1n.jpg,78.0,50.0,0.0,1.0,1.0,35.0,62.0,1.017,-1.0636681168836186,28.0,0.7260733048411856,-0.15912491876780693,0.8851982236089926
361,V1,d09142021,OvCTN,0.0,deliberation,3.0,34.0,10.0,67.0,Vinb1n.jpg,Picab1.jpg,65.0,81.0,0.0,-1.0,1.0,10.0,67.0,0.795,-1.2502822935598832,-16.0,0.31508841530843906,0.8209159716564347,-0.5058275563479957
362,V1,d09142021,OvCTN,0.0,deliberation,3.0,35.0,8.0,4.0,Picd1n.jpg,Krasb1.jpg,78.0,73.0,0.0,1.0,0.0,4.0,8.0,2.389,0.0896411191516742,5.0,0.7260733048411856,0.5680021934824369,0.15807111135874874
363,V1,d09172021,bOPuu,0.0,deliberation,1.0,0.0,51.0,50.0,Lewic1.jpg,Klic1n.jpg,54.0,50.0,0.0,-1.0,1.0,51.0,50.0,2.438,0.3129619521420645,4.0,0.41954027651886794,0.20439141676560227,0.21514885975326567
364,V1,d09172021,bOPuu,1.0,deliberation,1.0,1.0,20.0,36.0,Picb1n.jpg,Gustb1.jpg,34.0,54.0,1.0,1.0,0.0,36.0,20.0,1.506,-0.6549152179446277,-20.0,-0.6562040222474605,0.41954027651886794,-1.0757442987663284
365,V1,d09172021,bOPuu,1.0,deliberation,1.0,2.0,63.0,0.0,Lewia1.jpg,Monb1n.jpg,56.0,43.0,1.0,1.0,1.0,63.0,0.0,3.468,1.3826116143623355,13.0,0.5271147063955008,-0.1721190878026127,0.6992337941981135
366,V1,d09172021,bOPuu,0.0,deliberation,1.0,3.0,60.0,3.0,Kupc1n.jpg,Klib1n.jpg,48.0,56.0,0.0,1.0,1.0,60.0,3.0,3.904,1.835395354874994,-8.0,0.0968169868889694,0.5271147063955008,-0.43029771950653145
367,V1,d09172021,bOPuu,0.0,deliberation,1.0,4.0,39.0,7.0,Kupb1n.jpg,Macb1n.jpg,44.0,45.0,0.0,1.0,1.0,39.0,7.0,3.91,1.8416263237811317,-1.0,-0.11833187286429628,-0.06454465792597987,-0.05378721493831641
368,V1,d09172021,bOPuu,0.0,deliberation,1.0,5.0,43.0,32.0,Clifb1.jpg,Kupkb1.jpg,54.0,58.0,0.0,-1.0,0.0,32.0,43.0,2.304,0.17380364657165992,-4.0,0.41954027651886794,0.6346891362721336,-0.2151488597532657
369,V1,d09172021,bOPuu,0.0,deliberation,1.0,6.0,31.0,69.0,Picac1.jpg,Picad1.jpg,40.0,57.0,0.0,1.0,1.0,31.0,69.0,2.399,0.2724606542521706,-17.0,-0.333480732617562,0.5809019213338172,-0.9143826539513793
370,V1,d09172021,bOPuu,0.0,deliberation,1.0,7.0,67.0,21.0,Picab1.jpg,Kupkc1.jpg,40.0,37.0,0.0,-1.0,1.0,67.0,21.0,1.918,-0.2270553530565193,3.0,-0.333480732617562,-0.49484237743251125,0.16136164481494925
371,V1,d09172021,bOPuu,1.0,deliberation,1.0,8.0,56.0,13.0,Clib1n.jpg,Kupka1.jpg,40.0,57.0,1.0,-1.0,0.0,13.0,56.0,1.604,-0.5531427258110484,-17.0,-0.333480732617562,0.5809019213338172,-0.9143826539513793
372,V1,d09172021,bOPuu,1.0,deliberation,1.0,9.0,68.0,16.0,Mondb1.jpg,Vincc1.jpg,46.0,33.0,1.0,-1.0,0.0,16.0,68.0,1.901,-0.24470976495724212,13.0,-0.010757442987663438,-0.709991237185777,0.6992337941981135
373,V1,d09172021,bOPuu,1.0,deliberation,1.0,10.0,17.0,2.0,Picaa1.jpg,Dekb1n.jpg,52.0,39.0,1.0,-1.0,1.0,17.0,2.0,2.108,-0.02974133769549821,13.0,0.3119658466422351,-0.3872679475558784,0.6992337941981135
374,V1,d09172021,bOPuu,1.0,deliberation,1.0,11.0,57.0,5.0,Lassa1.jpg,Pica1n.jpg,57.0,37.0,1.0,1.0,1.0,57.0,5.0,3.334,1.2434533087919315,20.0,0.5809019213338172,-0.49484237743251125,1.0757442987663284
375,V1,d09172021,bOPuu,0.0,deliberation,2.0,12.0,39.0,7.0,Kupb1n.jpg,Macb1n.jpg,44.0,45.0,1.0,1.0,0.0,7.0,39.0,4.567,2.5239174190031886,-1.0,-0.11833187286429628,-0.06454465792597987,-0.05378721493831641
376,V1,d09172021,bOPuu,0.0,deliberation,2.0,13.0,60.0,3.0,Kupc1n.jpg,Klib1n.jpg,48.0,56.0,1.0,1.0,1.0,60.0,3.0,2.362,0.23403634599765608,-8.0,0.0968169868889694,0.5271147063955008,-0.43029771950653145
377,V1,d09172021,bOPuu,1.0,deliberation,2.0,14.0,17.0,2.0,Picaa1.jpg,Dekb1n.jpg,52.0,39.0,0.0,-1.0,1.0,17.0,2.0,2.302,0.17172665693628097,13.0,0.3119658466422351,-0.3872679475558784,0.6992337941981135
378,V1,d09172021,bOPuu,1.0,deliberation,2.0,15.0,56.0,13.0,Clib1n.jpg,Kupka1.jpg,40.0,57.0,0.0,-1.0,0.0,13.0,56.0,0.814,-1.3735536317858197,-17.0,-0.333480732617562,0.5809019213338172,-0.9143826539513793
379,V1,d09172021,bOPuu,1.0,deliberation,2.0,16.0,68.0,16.0,Mondb1.jpg,Vincc1.jpg,46.0,33.0,0.0,-1.0,0.0,16.0,68.0,2.259,0.12707137977562874,13.0,-0.010757442987663438,-0.709991237185777,0.6992337941981135
380,V1,d09172021,bOPuu,0.0,deliberation,2.0,17.0,43.0,32.0,Clifb1.jpg,Kupkb1.jpg,54.0,58.0,1.0,-1.0,0.0,32.0,43.0,2.346,0.2174204289146227,-4.0,0.41954027651886794,0.6346891362721336,-0.2151488597532657
381,V1,d09172021,bOPuu,0.0,deliberation,2.0,18.0,67.0,21.0,Picab1.jpg,Kupkc1.jpg,40.0,37.0,1.0,-1.0,1.0,67.0,21.0,1.676,-0.47837109893739854,3.0,-0.333480732617562,-0.49484237743251125,0.16136164481494925
382,V1,d09172021,bOPuu,0.0,deliberation,2.0,19.0,31.0,69.0,Picac1.jpg,Picad1.jpg,40.0,57.0,1.0,1.0,1.0,31.0,69.0,1.523,-0.6372608060439049,-17.0,-0.333480732617562,0.5809019213338172,-0.9143826539513793
383,V1,d09172021,bOPuu,1.0,deliberation,2.0,20.0,57.0,5.0,Lassa1.jpg,Pica1n.jpg,57.0,37.0,0.0,1.0,1.0,57.0,5.0,2.342,0.21326644964386438,20.0,0.5809019213338172,-0.49484237743251125,1.0757442987663284
384,V1,d09172021,bOPuu,1.0,deliberation,2.0,21.0,20.0,36.0,Picb1n.jpg,Gustb1.jpg,34.0,54.0,0.0,1.0,0.0,36.0,20.0,1.204,-0.9685406528868821,-20.0,-0.6562040222474605,0.41954027651886794,-1.0757442987663284
385,V1,d09172021,bOPuu,0.0,deliberation,2.0,22.0,51.0,50.0,Lewic1.jpg,Klic1n.jpg,54.0,50.0,1.0,-1.0,1.0,51.0,50.0,1.806,-0.34336677263775256,4.0,0.41954027651886794,0.20439141676560227,0.21514885975326567
386,V1,d09172021,bOPuu,1.0,deliberation,2.0,23.0,63.0,0.0,Lewia1.jpg,Monb1n.jpg,56.0,43.0,0.0,1.0,1.0,63.0,0.0,1.562,-0.596759508154011,13.0,0.5271147063955008,-0.1721190878026127,0.6992337941981135
387,V1,d09172021,bOPuu,0.0,deliberation,3.0,24.0,51.0,50.0,Lewic1.jpg,Klic1n.jpg,54.0,50.0,0.0,-1.0,1.0,51.0,50.0,4.02,1.9558607537269854,4.0,0.41954027651886794,0.20439141676560227,0.21514885975326567
388,V1,d09172021,bOPuu,0.0,deliberation,3.0,25.0,31.0,69.0,Picac1.jpg,Picad1.jpg,40.0,57.0,0.0,1.0,0.0,69.0,31.0,2.786,0.6743581486980396,-17.0,-0.333480732617562,0.5809019213338172,-0.9143826539513793
389,V1,d09172021,bOPuu,1.0,deliberation,3.0,26.0,20.0,36.0,Picb1n.jpg,Gustb1.jpg,34.0,54.0,0.0,1.0,0.0,36.0,20.0,1.412,-0.7525337308074487,-20.0,-0.6562040222474605,0.41954027651886794,-1.0757442987663284
390,V1,d09172021,bOPuu,1.0,deliberation,3.0,27.0,56.0,13.0,Clib1n.jpg,Kupka1.jpg,40.0,57.0,0.0,-1.0,0.0,13.0,56.0,0.871,-1.3143594271775134,-17.0,-0.333480732617562,0.5809019213338172,-0.9143826539513793
391,V1,d09172021,bOPuu,0.0,deliberation,3.0,28.0,60.0,3.0,Kupc1n.jpg,Klib1n.jpg,48.0,56.0,0.0,1.0,1.0,60.0,3.0,1.573,-0.5853360651594257,-8.0,0.0968169868889694,0.5271147063955008,-0.43029771950653145
392,V1,d09172021,bOPuu,1.0,deliberation,3.0,29.0,63.0,0.0,Lewia1.jpg,Monb1n.jpg,56.0,43.0,0.0,1.0,1.0,63.0,0.0,1.264,-0.9062309638255069,13.0,0.5271147063955008,-0.1721190878026127,0.6992337941981135
393,V1,d09172021,bOPuu,1.0,deliberation,3.0,30.0,68.0,16.0,Mondb1.jpg,Vincc1.jpg,46.0,33.0,0.0,-1.0,1.0,68.0,16.0,2.39,0.26311420089296444,13.0,-0.010757442987663438,-0.709991237185777,0.6992337941981135
394,V1,d09172021,bOPuu,0.0,deliberation,3.0,31.0,67.0,21.0,Picab1.jpg,Kupkc1.jpg,40.0,37.0,0.0,-1.0,1.0,67.0,21.0,1.488,-0.6736081246630402,3.0,-0.333480732617562,-0.49484237743251125,0.16136164481494925
395,V1,d09172021,bOPuu,0.0,deliberation,3.0,32.0,39.0,7.0,Kupb1n.jpg,Macb1n.jpg,44.0,45.0,0.0,1.0,0.0,7.0,39.0,2.725,0.611009964818975,-1.0,-0.11833187286429628,-0.06454465792597987,-0.05378721493831641
396,V1,d09172021,bOPuu,1.0,deliberation,3.0,33.0,17.0,2.0,Picaa1.jpg,Dekb1n.jpg,52.0,39.0,0.0,-1.0,1.0,17.0,2.0,0.913,-1.270742644834551,13.0,0.3119658466422351,-0.3872679475558784,0.6992337941981135
397,V1,d09172021,bOPuu,1.0,deliberation,3.0,34.0,57.0,5.0,Lassa1.jpg,Pica1n.jpg,57.0,37.0,0.0,1.0,1.0,57.0,5.0,0.952,-1.2302413469446571,20.0,0.5809019213338172,-0.49484237743251125,1.0757442987663284
398,V1,d09172021,bOPuu,0.0,deliberation,3.0,35.0,43.0,32.0,Clifb1.jpg,Kupkb1.jpg,54.0,58.0,0.0,-1.0,0.0,32.0,43.0,0.968,-1.2136254298616238,-4.0,0.41954027651886794,0.6346891362721336,-0.2151488597532657
399,V1,d09142021,skpJF,0.0,deliberation,1.0,0.0,63.0,48.0,Lewia1.jpg,Maca1n.jpg,65.0,72.0,0.0,-1.0,1.0,63.0,48.0,3.964,1.1167476618803185,-7.0,0.5180190922148755,0.7930734774617121,-0.27505438524683656
400,V1,d09142021,skpJF,1.0,deliberation,1.0,1.0,9.0,49.0,Klind1.jpg,Lewc1n.jpg,38.0,38.0,1.0,1.0,0.0,49.0,9.0,2.677,0.23800659650712613,0.0,-0.54290496516578,-0.54290496516578,0.0
401,V1,d09142021,skpJF,1.0,deliberation,1.0,2.0,26.0,21.0,Klid1n.jpg,Kupkc1.jpg,35.0,72.0,1.0,-1.0,0.0,21.0,26.0,4.668,1.5974265352468513,-37.0,-0.6607854159858528,0.7930734774617121,-1.453858893447565
402,V1,d09142021,skpJF,0.0,deliberation,1.0,3.0,60.0,43.0,Kupc1n.jpg,Clifb1.jpg,39.0,37.0,0.0,-1.0,1.0,60.0,43.0,3.045,0.48927055303963174,2.0,-0.5036114815590891,-0.582198448772471,0.07858696721338188
403,V1,d09142021,skpJF,0.0,deliberation,1.0,4.0,51.0,53.0,Lewic1.jpg,Macc1n.jpg,74.0,36.0,0.0,1.0,1.0,51.0,53.0,2.335,0.004494984729634381,38.0,0.871660444675094,-0.6214919323791619,1.4931523770542559
404,V1,d09142021,skpJF,1.0,deliberation,1.0,5.0,22.0,11.0,Klina1.jpg,Clifa1.jpg,35.0,71.0,1.0,-1.0,0.0,11.0,22.0,4.423,1.4301448250553732,-36.0,-0.6607854159858528,0.7537799938550211,-1.414565409840874
405,V1,d09142021,skpJF,1.0,deliberation,1.0,6.0,31.0,2.0,Picac1.jpg,Dekb1n.jpg,55.0,47.0,1.0,-1.0,0.0,2.0,31.0,6.028,2.526010722432198,8.0,0.12508425614796603,-0.1892636127055615,0.3143478688535275
406,V1,d09142021,skpJF,0.0,deliberation,1.0,7.0,44.0,68.0,Mackb1.jpg,Mondb1.jpg,67.0,62.0,0.0,1.0,0.0,68.0,44.0,3.964,1.1167476618803185,5.0,0.5966060594282574,0.40013864139480265,0.19646741803345474
407,V1,d09142021,skpJF,1.0,deliberation,1.0,8.0,33.0,65.0,Kline1.jpg,Roha1n.jpg,49.0,47.0,1.0,1.0,1.0,33.0,65.0,2.813,0.3308650152256609,2.0,-0.11067664549217962,-0.1892636127055615,0.07858696721338188
408,V1,d09142021,skpJF,1.0,deliberation,1.0,9.0,62.0,1.0,Mona1n.jpg,Monda1.jpg,34.0,62.0,1.0,1.0,1.0,62.0,1.0,6.828,3.072236714894167,-28.0,-0.7000788995925438,0.40013864139480265,-1.1002175409873465
409,V1,d09142021,skpJF,0.0,deliberation,1.0,10.0,17.0,41.0,Picaa1.jpg,Picae1.jpg,55.0,50.0,0.0,1.0,1.0,17.0,41.0,3.101,0.5275063725119696,5.0,0.12508425614796603,-0.07138316188548868,0.19646741803345472
410,V1,d09142021,skpJF,0.0,deliberation,1.0,11.0,57.0,61.0,Lassa1.jpg,Grigb1.jpg,34.0,63.0,0.0,-1.0,0.0,61.0,57.0,3.799,1.0040885509350375,-29.0,-0.7000788995925438,0.4394321250014936,-1.1395110245940374
411,V1,d09142021,skpJF,0.0,deliberation,2.0,12.0,63.0,48.0,Lewia1.jpg,Maca1n.jpg,65.0,72.0,1.0,-1.0,1.0,63.0,48.0,1.883,-0.304122701011378,-7.0,0.5180190922148755,0.7930734774617121,-0.27505438524683656
412,V1,d09142021,skpJF,0.0,deliberation,2.0,13.0,51.0,53.0,Lewic1.jpg,Macc1n.jpg,74.0,36.0,1.0,1.0,1.0,51.0,53.0,1.741,-0.40107781467337744,38.0,0.871660444675094,-0.6214919323791619,1.4931523770542559
413,V1,d09142021,skpJF,1.0,deliberation,2.0,14.0,62.0,1.0,Mona1n.jpg,Monda1.jpg,34.0,62.0,0.0,1.0,1.0,62.0,1.0,2.468,0.09530505597643671,-28.0,-0.7000788995925438,0.40013864139480265,-1.1002175409873465
414,V1,d09142021,skpJF,1.0,deliberation,2.0,15.0,31.0,2.0,Picac1.jpg,Dekb1n.jpg,55.0,47.0,0.0,-1.0,0.0,2.0,31.0,1.703,-0.42702354931532094,8.0,0.12508425614796603,-0.1892636127055615,0.3143478688535275
415,V1,d09142021,skpJF,1.0,deliberation,2.0,16.0,9.0,49.0,Klind1.jpg,Lewc1n.jpg,38.0,38.0,0.0,1.0,0.0,49.0,9.0,1.269,-0.7233511502259392,0.0,-0.54290496516578,-0.54290496516578,0.0
416,V1,d09142021,skpJF,1.0,deliberation,2.0,17.0,26.0,21.0,Klid1n.jpg,Kupkc1.jpg,35.0,72.0,0.0,-1.0,0.0,21.0,26.0,1.503,-0.5635800474308134,-37.0,-0.6607854159858528,0.7930734774617121,-1.453858893447565
417,V1,d09142021,skpJF,0.0,deliberation,2.0,18.0,44.0,68.0,Mackb1.jpg,Mondb1.jpg,67.0,62.0,1.0,1.0,0.0,68.0,44.0,2.734,0.2769251984700414,5.0,0.5966060594282574,0.40013864139480265,0.19646741803345474
418,V1,d09142021,skpJF,0.0,deliberation,2.0,19.0,60.0,43.0,Kupc1n.jpg,Clifb1.jpg,39.0,37.0,1.0,-1.0,1.0,60.0,43.0,1.901,-0.2918326161809837,2.0,-0.5036114815590891,-0.582198448772471,0.07858696721338188
419,V1,d09142021,skpJF,0.0,deliberation,2.0,20.0,17.0,41.0,Picaa1.jpg,Picae1.jpg,55.0,50.0,1.0,1.0,1.0,17.0,41.0,2.122,-0.14093768576336488,5.0,0.12508425614796603,-0.07138316188548868,0.19646741803345472
420,V1,d09142021,skpJF,1.0,deliberation,2.0,21.0,33.0,65.0,Kline1.jpg,Roha1n.jpg,49.0,47.0,0.0,1.0,1.0,33.0,65.0,2.053,-0.18804967761320968,2.0,-0.11067664549217962,-0.1892636127055615,0.07858696721338188
421,V1,d09142021,skpJF,1.0,deliberation,2.0,22.0,22.0,11.0,Klina1.jpg,Clifa1.jpg,35.0,71.0,0.0,-1.0,0.0,11.0,22.0,1.396,-0.6366377739226017,-36.0,-0.6607854159858528,0.7537799938550211,-1.414565409840874
422,V1,d09142021,skpJF,0.0,deliberation,2.0,23.0,57.0,61.0,Lassa1.jpg,Grigb1.jpg,34.0,63.0,1.0,-1.0,0.0,61.0,57.0,1.438,-0.6079609093183482,-29.0,-0.7000788995925438,0.4394321250014936,-1.1395110245940374
423,V1,d09142021,skpJF,1.0,deliberation,3.0,24.0,22.0,11.0,Klina1.jpg,Clifa1.jpg,35.0,71.0,0.0,-1.0,0.0,11.0,22.0,1.909,-0.286370356256364,-36.0,-0.6607854159858528,0.7537799938550211,-1.414565409840874
424,V1,d09142021,skpJF,0.0,deliberation,3.0,25.0,60.0,43.0,Kupc1n.jpg,Clifb1.jpg,39.0,37.0,0.0,-1.0,1.0,60.0,43.0,0.972,-0.9261375499274451,2.0,-0.5036114815590891,-0.582198448772471,0.07858696721338188
425,V1,d09142021,skpJF,0.0,deliberation,3.0,26.0,63.0,48.0,Lewia1.jpg,Maca1n.jpg,65.0,72.0,0.0,-1.0,1.0,63.0,48.0,1.231,-0.7492968848678826,-7.0,0.5180190922148755,0.7930734774617121,-0.27505438524683656
426,V1,d09142021,skpJF,0.0,deliberation,3.0,27.0,44.0,68.0,Mackb1.jpg,Mondb1.jpg,67.0,62.0,0.0,1.0,0.0,68.0,44.0,1.157,-0.7998227891706148,5.0,0.5966060594282574,0.40013864139480265,0.19646741803345474
427,V1,d09142021,skpJF,1.0,deliberation,3.0,28.0,26.0,21.0,Klid1n.jpg,Kupkc1.jpg,35.0,72.0,0.0,-1.0,0.0,21.0,26.0,0.933,-0.952766067059966,-37.0,-0.6607854159858528,0.7930734774617121,-1.453858893447565
428,V1,d09142021,skpJF,1.0,deliberation,3.0,29.0,31.0,2.0,Picac1.jpg,Dekb1n.jpg,55.0,47.0,0.0,-1.0,0.0,2.0,31.0,1.645,-0.46662493376881375,8.0,0.12508425614796603,-0.1892636127055615,0.3143478688535275
429,V1,d09142021,skpJF,0.0,deliberation,3.0,30.0,17.0,41.0,Picaa1.jpg,Picae1.jpg,55.0,50.0,0.0,1.0,1.0,17.0,41.0,1.165,-0.7943605292459951,5.0,0.12508425614796603,-0.07138316188548868,0.19646741803345472
430,V1,d09142021,skpJF,1.0,deliberation,3.0,31.0,9.0,49.0,Klind1.jpg,Lewc1n.jpg,38.0,38.0,0.0,1.0,0.0,49.0,9.0,0.814,-1.034017183438684,0.0,-0.54290496516578,-0.54290496516578,0.0
431,V1,d09142021,skpJF,1.0,deliberation,3.0,32.0,62.0,1.0,Mona1n.jpg,Monda1.jpg,34.0,62.0,0.0,1.0,1.0,62.0,1.0,1.244,-0.7404207124903757,-28.0,-0.7000788995925438,0.40013864139480265,-1.1002175409873465
432,V1,d09142021,skpJF,1.0,deliberation,3.0,33.0,33.0,65.0,Kline1.jpg,Roha1n.jpg,49.0,47.0,0.0,1.0,1.0,33.0,65.0,1.069,-0.8599076483414314,2.0,-0.11067664549217962,-0.1892636127055615,0.07858696721338188
433,V1,d09142021,skpJF,0.0,deliberation,3.0,34.0,57.0,61.0,Lassa1.jpg,Grigb1.jpg,34.0,63.0,0.0,-1.0,0.0,61.0,57.0,0.904,-0.9725667592867125,-29.0,-0.7000788995925438,0.4394321250014936,-1.1395110245940374
434,V1,d09142021,skpJF,0.0,deliberation,3.0,35.0,51.0,53.0,Lewic1.jpg,Macc1n.jpg,74.0,36.0,0.0,1.0,1.0,51.0,53.0,0.924,-0.9589111094751632,38.0,0.871660444675094,-0.6214919323791619,1.4931523770542559
435,V1,d09142021,Pj09s,1.0,deliberation,1.0,0.0,56.0,23.0,Clib1n.jpg,Rohlb1.jpg,56.0,56.0,1.0,1.0,0.0,23.0,56.0,2.213,-0.09453545786527026,0.0,-0.15631344145943707,-0.15631344145943707,0.0
436,V1,d09142021,Pj09s,0.0,deliberation,1.0,1.0,39.0,64.0,Kupb1n.jpg,Vincb1.jpg,73.0,62.0,0.0,-1.0,0.0,64.0,39.0,3.146,0.9160491884678527,11.0,0.6872829092740332,0.1414264470347289,0.5458564622393043
437,V1,d09142021,Pj09s,0.0,deliberation,1.0,2.0,12.0,44.0,Klie1n.jpg,Mackb1.jpg,63.0,50.0,0.0,1.0,0.0,44.0,12.0,4.914,2.831069182805432,13.0,0.19104976178375657,-0.45405332995360304,0.6451030917373596
438,V1,d09142021,Pj09s,0.0,deliberation,1.0,3.0,67.0,0.0,Picab1.jpg,Monb1n.jpg,46.0,46.0,0.0,1.0,0.0,0.0,67.0,2.651,0.37988691629754606,0.0,-0.6525465889497137,-0.6525465889497137,0.0
439,V1,d09142021,Pj09s,1.0,deliberation,1.0,4.0,31.0,50.0,Picac1.jpg,Klic1n.jpg,64.0,63.0,1.0,-1.0,0.0,50.0,31.0,3.915,1.7489962335162683,1.0,0.24067307653278422,0.19104976178375657,0.04962331474902765
440,V1,d09142021,Pj09s,1.0,deliberation,1.0,5.0,62.0,32.0,Mona1n.jpg,Kupkb1.jpg,58.0,66.0,1.0,-1.0,1.0,62.0,32.0,2.703,0.4362110337780632,-8.0,-0.05706681196138174,0.33991970603083954,-0.3969865179922213
441,V1,d09142021,Pj09s,0.0,deliberation,1.0,6.0,20.0,42.0,Picb1n.jpg,Mackc1.jpg,45.0,44.0,0.0,-1.0,1.0,20.0,42.0,2.307,0.007281216041818095,1.0,-0.7021699036987413,-0.751793218447769,0.0496233147490277
442,V1,d09142021,Pj09s,0.0,deliberation,1.0,7.0,18.0,7.0,Krab1n.jpg,Macb1n.jpg,65.0,50.0,0.0,1.0,1.0,18.0,7.0,2.484,0.19899984669665502,15.0,0.2902963912818119,-0.45405332995360304,0.7443497212354149
443,V1,d09142021,Pj09s,1.0,deliberation,1.0,8.0,33.0,68.0,Kline1.jpg,Mondb1.jpg,60.0,70.0,1.0,1.0,1.0,33.0,68.0,3.087,0.8521429782495741,-10.0,0.04217981753667358,0.5384129650269502,-0.49623314749027664
444,V1,d09142021,Pj09s,1.0,deliberation,1.0,9.0,38.0,36.0,Krasa1.jpg,Gustb1.jpg,56.0,64.0,1.0,1.0,0.0,36.0,38.0,2.815,0.5575245175822539,-8.0,-0.15631344145943707,0.24067307653278422,-0.3969865179922213
445,V1,d09142021,Pj09s,0.0,deliberation,1.0,10.0,29.0,5.0,Klinb1.jpg,Pica1n.jpg,67.0,57.0,0.0,-1.0,1.0,29.0,5.0,1.498,-0.8689920732223797,10.0,0.38954302077986724,-0.10669012671040941,0.49623314749027664
446,V1,d09142021,Pj09s,1.0,deliberation,1.0,11.0,3.0,46.0,Klib1n.jpg,Lewb1n.jpg,53.0,59.0,1.0,-1.0,0.0,46.0,3.0,2.607,0.33222804766018593,-6.0,-0.30518338570652004,-0.007443497212354079,-0.29773988849416594
447,V1,d09142021,Pj09s,1.0,deliberation,2.0,12.0,31.0,50.0,Picac1.jpg,Klic1n.jpg,64.0,63.0,0.0,-1.0,0.0,50.0,31.0,2.69,0.422130004407934,1.0,0.24067307653278422,0.19104976178375657,0.04962331474902765
448,V1,d09142021,Pj09s,0.0,deliberation,2.0,13.0,29.0,5.0,Klinb1.jpg,Pica1n.jpg,67.0,57.0,1.0,-1.0,1.0,29.0,5.0,1.628,-0.7281817795210872,10.0,0.38954302077986724,-0.10669012671040941,0.49623314749027664
449,V1,d09142021,Pj09s,1.0,deliberation,2.0,14.0,62.0,32.0,Mona1n.jpg,Kupkb1.jpg,58.0,66.0,0.0,-1.0,1.0,62.0,32.0,3.029,0.7893199241366894,-8.0,-0.05706681196138174,0.33991970603083954,-0.3969865179922213
450,V1,d09142021,Pj09s,0.0,deliberation,2.0,15.0,20.0,42.0,Picb1n.jpg,Mackc1.jpg,45.0,44.0,1.0,-1.0,1.0,20.0,42.0,1.725,-0.6231156372978148,1.0,-0.7021699036987413,-0.751793218447769,0.0496233147490277
451,V1,d09142021,Pj09s,1.0,deliberation,2.0,16.0,38.0,36.0,Krasa1.jpg,Gustb1.jpg,56.0,64.0,0.0,1.0,1.0,38.0,36.0,4.148,2.0013716060732003,-8.0,-0.15631344145943707,0.24067307653278422,-0.3969865179922213
452,V1,d09142021,Pj09s,1.0,deliberation,2.0,17.0,3.0,46.0,Klib1n.jpg,Lewb1n.jpg,53.0,59.0,0.0,-1.0,0.0,46.0,3.0,1.447,-0.9242330345975022,-6.0,-0.30518338570652004,-0.007443497212354079,-0.29773988849416594
453,V1,d09142021,Pj09s,1.0,deliberation,2.0,18.0,56.0,23.0,Clib1n.jpg,Rohlb1.jpg,56.0,56.0,0.0,1.0,0.0,23.0,56.0,1.416,-0.9578108738647336,0.0,-0.15631344145943707,-0.15631344145943707,0.0
454,V1,d09142021,Pj09s,0.0,deliberation,2.0,19.0,18.0,7.0,Krab1n.jpg,Macb1n.jpg,65.0,50.0,1.0,1.0,1.0,18.0,7.0,2.328,0.030027494255103725,15.0,0.2902963912818119,-0.45405332995360304,0.7443497212354149
455,V1,d09142021,Pj09s,0.0,deliberation,2.0,20.0,67.0,0.0,Picab1.jpg,Monb1n.jpg,46.0,46.0,1.0,1.0,0.0,0.0,67.0,2.175,-0.13569538987026375,0.0,-0.6525465889497137,-0.6525465889497137,0.0
456,V1,d09142021,Pj09s,0.0,deliberation,2.0,21.0,12.0,44.0,Klie1n.jpg,Mackb1.jpg,63.0,50.0,1.0,1.0,0.0,44.0,12.0,3.356,1.14351197060071,13.0,0.19104976178375657,-0.45405332995360304,0.6451030917373596
457,V1,d09142021,Pj09s,0.0,deliberation,2.0,22.0,39.0,64.0,Kupb1n.jpg,Vincb1.jpg,73.0,62.0,1.0,-1.0,0.0,64.0,39.0,2.315,0.01594646488497457,11.0,0.6872829092740332,0.1414264470347289,0.5458564622393043
458,V1,d09142021,Pj09s,1.0,deliberation,2.0,23.0,33.0,68.0,Kline1.jpg,Mondb1.jpg,60.0,70.0,0.0,1.0,1.0,33.0,68.0,1.901,-0.4324801627483726,-10.0,0.04217981753667358,0.5384129650269502,-0.49623314749027664
459,V1,d09142021,Pj09s,1.0,deliberation,3.0,24.0,62.0,32.0,Mona1n.jpg,Kupkb1.jpg,58.0,66.0,0.0,-1.0,0.0,32.0,62.0,3.536,1.3384800695717307,-8.0,-0.05706681196138174,0.33991970603083954,-0.3969865179922213
460,V1,d09142021,Pj09s,1.0,deliberation,3.0,25.0,31.0,50.0,Picac1.jpg,Klic1n.jpg,64.0,63.0,0.0,-1.0,0.0,50.0,31.0,2.001,-0.3241645522089169,1.0,0.24067307653278422,0.19104976178375657,0.04962331474902765
461,V1,d09142021,Pj09s,0.0,deliberation,3.0,26.0,67.0,0.0,Picab1.jpg,Monb1n.jpg,46.0,46.0,0.0,1.0,0.0,0.0,67.0,2.165,-0.14652695092420912,0.0,-0.6525465889497137,-0.6525465889497137,0.0
462,V1,d09142021,Pj09s,1.0,deliberation,3.0,27.0,38.0,36.0,Krasa1.jpg,Gustb1.jpg,56.0,64.0,0.0,1.0,1.0,38.0,36.0,1.676,-0.6761902864621484,-8.0,-0.15631344145943707,0.24067307653278422,-0.3969865179922213
463,V1,d09142021,Pj09s,1.0,deliberation,3.0,28.0,56.0,23.0,Clib1n.jpg,Rohlb1.jpg,56.0,56.0,0.0,1.0,0.0,23.0,56.0,1.276,-1.1094527286199716,0.0,-0.15631344145943707,-0.15631344145943707,0.0
464,V1,d09142021,Pj09s,0.0,deliberation,3.0,29.0,29.0,5.0,Klinb1.jpg,Pica1n.jpg,67.0,57.0,0.0,-1.0,1.0,29.0,5.0,2.22,-0.08695336512750822,10.0,0.38954302077986724,-0.10669012671040941,0.49623314749027664
465,V1,d09142021,Pj09s,0.0,deliberation,3.0,30.0,39.0,64.0,Kupb1n.jpg,Vincb1.jpg,73.0,62.0,0.0,-1.0,0.0,64.0,39.0,1.524,-0.8408300144821211,11.0,0.6872829092740332,0.1414264470347289,0.5458564622393043
466,V1,d09142021,Pj09s,0.0,deliberation,3.0,31.0,18.0,7.0,Krab1n.jpg,Macb1n.jpg,65.0,50.0,0.0,1.0,1.0,18.0,7.0,1.173,-1.2210178074756113,15.0,0.2902963912818119,-0.45405332995360304,0.7443497212354149
467,V1,d09142021,Pj09s,0.0,deliberation,3.0,32.0,12.0,44.0,Klie1n.jpg,Mackb1.jpg,63.0,50.0,0.0,1.0,0.0,44.0,12.0,1.274,-1.111619040830761,13.0,0.19104976178375657,-0.45405332995360304,0.6451030917373596
468,V1,d09142021,Pj09s,1.0,deliberation,3.0,33.0,3.0,46.0,Klib1n.jpg,Lewb1n.jpg,53.0,59.0,0.0,-1.0,0.0,46.0,3.0,1.013,-1.3943227843387407,-6.0,-0.30518338570652004,-0.007443497212354079,-0.29773988849416594
469,V1,d09142021,Pj09s,0.0,deliberation,3.0,34.0,20.0,42.0,Picb1n.jpg,Mackc1.jpg,45.0,44.0,0.0,-1.0,1.0,20.0,42.0,1.429,-0.9437298444946042,1.0,-0.7021699036987413,-0.751793218447769,0.0496233147490277
470,V1,d09142021,Pj09s,1.0,deliberation,3.0,35.0,33.0,68.0,Kline1.jpg,Mondb1.jpg,60.0,70.0,0.0,1.0,0.0,68.0,33.0,1.025,-1.381324911074006,-10.0,0.04217981753667358,0.5384129650269502,-0.49623314749027664
471,V1,d09172021,MlgU9,0.0,deliberation,1.0,0.0,46.0,43.0,Lewb1n.jpg,Clifb1.jpg,50.0,58.0,0.0,1.0,1.0,46.0,43.0,1.78,0.5032819631753181,-8.0,-0.26043294339537365,0.5408991901288526,-0.8013321335242263
472,V1,d09172021,MlgU9,0.0,deliberation,1.0,1.0,65.0,22.0,Roha1n.jpg,Klina1.jpg,51.0,58.0,0.0,1.0,1.0,65.0,22.0,1.234,-0.02210495424855208,-7.0,-0.1602664267048454,0.5408991901288526,-0.7011656168336979
473,V1,d09172021,MlgU9,1.0,deliberation,1.0,2.0,21.0,26.0,Kupkc1.jpg,Klid1n.jpg,59.0,50.0,1.0,1.0,1.0,21.0,26.0,1.651,0.3791520870806675,9.0,0.6410657068193808,-0.26043294339537365,0.9014986502147544
474,V1,d09172021,MlgU9,0.0,deliberation,1.0,3.0,34.0,67.0,Lasb1n.jpg,Picab1.jpg,51.0,50.0,0.0,-1.0,1.0,34.0,67.0,1.507,0.24058850446338292,1.0,-0.1602664267048454,-0.26043294339537365,0.10016651669052826
475,V1,d09172021,MlgU9,1.0,deliberation,1.0,4.0,20.0,55.0,Picb1n.jpg,Clia1n.jpg,58.0,50.0,1.0,-1.0,1.0,20.0,55.0,1.007,-0.24053504629107694,8.0,0.5408991901288526,-0.26043294339537365,0.8013321335242263
476,V1,d09172021,MlgU9,1.0,deliberation,1.0,5.0,25.0,19.0,Dekob1.jpg,Picc1n.jpg,56.0,54.0,1.0,1.0,0.0,19.0,25.0,2.383,1.0835169653851968,2.0,0.340566156747796,0.14023312336673943,0.20033303338105657
477,V1,d09172021,MlgU9,0.0,deliberation,1.0,6.0,69.0,37.0,Picad1.jpg,Deka1n.jpg,59.0,54.0,0.0,-1.0,1.0,69.0,37.0,1.231,-0.024991695553078737,5.0,0.6410657068193808,0.14023312336673943,0.5008325834526414
478,V1,d09172021,MlgU9,1.0,deliberation,1.0,7.0,66.0,60.0,Vinca1.jpg,Kupc1n.jpg,59.0,60.0,1.0,1.0,0.0,60.0,66.0,2.333,1.035404610309751,-1.0,0.6410657068193808,0.7412322235099091,-0.10016651669052834
479,V1,d09172021,MlgU9,1.0,deliberation,1.0,8.0,47.0,57.0,Vina1n.jpg,Lassa1.jpg,49.0,50.0,1.0,-1.0,1.0,47.0,57.0,3.108,1.7811461139791636,-1.0,-0.36059946008590194,-0.26043294339537365,-0.10016651669052828
480,V1,d09172021,MlgU9,1.0,deliberation,1.0,9.0,48.0,2.0,Maca1n.jpg,Dekb1n.jpg,54.0,55.0,1.0,-1.0,0.0,2.0,48.0,1.432,0.16841997185021398,-1.0,0.14023312336673943,0.24039964005726772,-0.10016651669052828
481,V1,d09172021,MlgU9,0.0,deliberation,1.0,10.0,44.0,7.0,Mackb1.jpg,Macb1n.jpg,50.0,50.0,0.0,1.0,1.0,44.0,7.0,1.471,0.205947608809062,0.0,-0.26043294339537365,-0.26043294339537365,0.0
482,V1,d09172021,MlgU9,0.0,deliberation,1.0,11.0,17.0,68.0,Picaa1.jpg,Mondb1.jpg,60.0,59.0,0.0,-1.0,1.0,17.0,68.0,1.438,0.1741934544592675,1.0,0.7412322235099091,0.6410657068193808,0.10016651669052834
483,V1,d09172021,MlgU9,1.0,deliberation,2.0,12.0,48.0,2.0,Maca1n.jpg,Dekb1n.jpg,54.0,55.0,0.0,-1.0,0.0,2.0,48.0,0.933,-0.3117413318027369,-1.0,0.14023312336673943,0.24039964005726772,-0.10016651669052828
484,V1,d09172021,MlgU9,0.0,deliberation,2.0,13.0,46.0,43.0,Lewb1n.jpg,Clifb1.jpg,50.0,58.0,1.0,1.0,1.0,46.0,43.0,0.783,-0.4560783970290748,-8.0,-0.26043294339537365,0.5408991901288526,-0.8013321335242263
485,V1,d09172021,MlgU9,1.0,deliberation,2.0,14.0,21.0,26.0,Kupkc1.jpg,Klid1n.jpg,59.0,50.0,0.0,1.0,1.0,21.0,26.0,0.845,-0.3964190767355219,9.0,0.6410657068193808,-0.26043294339537365,0.9014986502147544
486,V1,d09172021,MlgU9,1.0,deliberation,2.0,15.0,20.0,55.0,Picb1n.jpg,Clia1n.jpg,58.0,50.0,0.0,-1.0,1.0,20.0,55.0,0.67,-0.5648123194995828,8.0,0.5408991901288526,-0.26043294339537365,0.8013321335242263
487,V1,d09172021,MlgU9,1.0,deliberation,2.0,16.0,25.0,19.0,Dekob1.jpg,Picc1n.jpg,56.0,54.0,0.0,1.0,0.0,19.0,25.0,0.837,-0.40411705354759325,2.0,0.340566156747796,0.14023312336673943,0.20033303338105657
488,V1,d09172021,MlgU9,0.0,deliberation,2.0,17.0,17.0,68.0,Picaa1.jpg,Mondb1.jpg,60.0,59.0,1.0,-1.0,1.0,17.0,68.0,0.727,-0.5099642347135744,1.0,0.7412322235099091,0.6410657068193808,0.10016651669052834
489,V1,d09172021,MlgU9,0.0,deliberation,2.0,18.0,44.0,7.0,Mackb1.jpg,Macb1n.jpg,50.0,50.0,1.0,1.0,1.0,44.0,7.0,6.203,4.759300893149271,0.0,-0.26043294339537365,-0.26043294339537365,0.0
490,V1,d09172021,MlgU9,0.0,deliberation,2.0,19.0,65.0,22.0,Roha1n.jpg,Klina1.jpg,51.0,58.0,1.0,1.0,1.0,65.0,22.0,1.289,0.030818636334438446,-7.0,-0.1602664267048454,0.5408991901288526,-0.7011656168336979
491,V1,d09172021,MlgU9,0.0,deliberation,2.0,20.0,34.0,67.0,Lasb1n.jpg,Picab1.jpg,51.0,50.0,1.0,-1.0,1.0,34.0,67.0,0.976,-0.2703647064378534,1.0,-0.1602664267048454,-0.26043294339537365,0.10016651669052826
492,V1,d09172021,MlgU9,0.0,deliberation,2.0,21.0,69.0,37.0,Picad1.jpg,Deka1n.jpg,59.0,54.0,1.0,-1.0,1.0,69.0,37.0,0.799,-0.4406824434049321,5.0,0.6410657068193808,0.14023312336673943,0.5008325834526414
493,V1,d09172021,MlgU9,1.0,deliberation,2.0,22.0,47.0,57.0,Vina1n.jpg,Lassa1.jpg,49.0,50.0,0.0,-1.0,1.0,47.0,57.0,1.055,-0.19434718541864876,-1.0,-0.36059946008590194,-0.26043294339537365,-0.10016651669052828
494,V1,d09172021,MlgU9,1.0,deliberation,2.0,23.0,66.0,60.0,Vinca1.jpg,Kupc1n.jpg,59.0,60.0,0.0,1.0,0.0,60.0,66.0,1.886,0.6052801559352635,-1.0,0.6410657068193808,0.7412322235099091,-0.10016651669052834
495,V1,d09172021,MlgU9,1.0,deliberation,3.0,24.0,48.0,2.0,Maca1n.jpg,Dekb1n.jpg,54.0,55.0,0.0,-1.0,0.0,2.0,48.0,0.981,-0.2655534709303088,-1.0,0.14023312336673943,0.24039964005726772,-0.10016651669052828
