,version,group,PID,phase,block,condition,trial,chosen_trial,gain_left,stimulus_left,stimulus_right,painting_left,painting_right,rating_left,rating_right,left_chosen,chosen_obj,unchosen_obj,higher_outcome_chosen,rt,zscored_rt,delta_ratings,zcored_rating_left,zcored_rating_right,zscored_delta_ratings
0,V1,d09142021,fX2Ey,final_decisions,1.0,0.0,0.0,0.0,0.0,11.0,19.0,Clifa1.jpg,Picc1n.jpg,45.0,55.0,1.0,11.0,19.0,0.0,1.446,1.8782492857986501,-10.0,-0.4049381785607368,0.06683445665565546,-0.47177263521639223
1,V1,d09142021,fX2Ey,final_decisions,1.0,1.0,1.0,0.0,0.0,58.0,38.0,Klinc1.jpg,Krasa1.jpg,59.0,42.0,1.0,58.0,38.0,0.0,1.499,2.103433843108263,17.0,0.2555435107422124,-0.5464699691256545,0.8020134798678669
2,V1,d09142021,fX2Ey,final_decisions,1.0,0.0,2.0,0.0,1.0,1.0,69.0,Monda1.jpg,Picad1.jpg,55.0,55.0,1.0,1.0,69.0,1.0,1.526,2.218150504379197,0.0,0.06683445665565546,0.06683445665565546,0.0
3,V1,d09142021,fX2Ey,final_decisions,1.0,0.0,3.0,1.0,0.0,50.0,54.0,Klic1n.jpg,Rohla1.jpg,66.0,59.0,0.0,54.0,50.0,1.0,1.597,2.519812835869432,7.0,0.5857843553936869,0.2555435107422124,0.3302408446514745
4,V1,d09142021,fX2Ey,final_decisions,1.0,1.0,4.0,0.0,1.0,21.0,58.0,Kupkc1.jpg,Klinc1.jpg,56.0,59.0,1.0,21.0,58.0,1.0,1.216,0.9010332823795785,-3.0,0.11401172017729468,0.2555435107422124,-0.14153179056491771
5,V1,d09142021,fX2Ey,final_decisions,1.0,1.0,5.0,0.0,0.0,22.0,21.0,Klina1.jpg,Kupkc1.jpg,46.0,56.0,1.0,22.0,21.0,0.0,1.259,1.083730187366622,-10.0,-0.35776091503909757,0.11401172017729468,-0.47177263521639223
6,V1,d09142021,fX2Ey,final_decisions,1.0,0.0,6.0,0.0,1.0,55.0,11.0,Clia1n.jpg,Clifa1.jpg,43.0,45.0,0.0,11.0,55.0,0.0,0.996,-0.033695068716924764,-2.0,-0.49929270560401523,-0.4049381785607368,-0.09435452704327846
7,V1,d09142021,fX2Ey,final_decisions,1.0,0.0,7.0,1.0,0.0,50.0,30.0,Klic1n.jpg,Kraa1n.jpg,66.0,65.0,1.0,50.0,30.0,0.0,1.331,1.3896412840891144,1.0,0.5857843553936869,0.5386070918720477,0.0471772635216392
8,V1,d09142021,fX2Ey,final_decisions,1.0,0.0,8.0,1.0,1.0,66.0,50.0,Vinca1.jpg,Klic1n.jpg,54.0,66.0,1.0,66.0,50.0,1.0,1.161,0.6673511946054529,-12.0,0.019657193134016232,0.5857843553936869,-0.5661271622596706
9,V1,d09142021,fX2Ey,final_decisions,1.0,0.0,9.0,0.0,0.0,11.0,1.0,Clifa1.jpg,Monda1.jpg,45.0,55.0,1.0,11.0,1.0,0.0,1.135,0.5568832985667751,-10.0,-0.4049381785607368,0.06683445665565546,-0.47177263521639223
10,V1,d09142021,fX2Ey,final_decisions,1.0,1.0,10.0,1.0,1.0,29.0,47.0,Klinb1.jpg,Vina1n.jpg,46.0,64.0,0.0,47.0,29.0,0.0,0.841,-0.692253679716734,-18.0,-0.35776091503909757,0.4914298283504085,-0.8491907433895061
11,V1,d09142021,fX2Ey,final_decisions,1.0,1.0,11.0,1.0,1.0,7.0,47.0,Macb1n.jpg,Vina1n.jpg,61.0,64.0,1.0,7.0,47.0,1.0,1.385,1.6190746066309836,-3.0,0.34989803778549083,0.4914298283504085,-0.14153179056491766
12,V1,d09142021,fX2Ey,final_decisions,1.0,0.0,12.0,0.0,0.0,69.0,55.0,Picad1.jpg,Clia1n.jpg,55.0,43.0,0.0,55.0,69.0,1.0,1.099,0.403927750205529,12.0,0.06683445665565546,-0.49929270560401523,0.5661271622596706
13,V1,d09142021,fX2Ey,final_decisions,1.0,1.0,13.0,0.0,1.0,38.0,22.0,Krasa1.jpg,Klina1.jpg,42.0,46.0,0.0,22.0,38.0,0.0,1.399,1.6785573198825792,-4.0,-0.5464699691256545,-0.35776091503909757,-0.18870905408655692
14,V1,d09142021,fX2Ey,final_decisions,1.0,1.0,14.0,0.0,1.0,18.0,39.0,Krab1n.jpg,Kupb1n.jpg,44.0,55.0,0.0,39.0,18.0,0.0,1.369,1.5510943629148741,-11.0,-0.45211544208237603,0.06683445665565546,-0.5189498987380314
15,V1,d09142021,fX2Ey,final_decisions,1.0,1.0,15.0,1.0,1.0,29.0,53.0,Klinb1.jpg,Macc1n.jpg,46.0,64.0,0.0,53.0,29.0,0.0,1.014,0.042782705463698306,-18.0,-0.35776091503909757,0.4914298283504085,-0.8491907433895061
16,V1,d09142021,fX2Ey,final_decisions,1.0,0.0,16.0,0.0,0.0,63.0,1.0,Lewia1.jpg,Monda1.jpg,41.0,55.0,1.0,63.0,1.0,0.0,1.217,0.9052820476118358,-14.0,-0.5936472326472937,0.06683445665565546,-0.6604816893029491
17,V1,d09142021,fX2Ey,final_decisions,1.0,1.0,17.0,0.0,0.0,22.0,18.0,Klina1.jpg,Krab1n.jpg,46.0,44.0,0.0,18.0,22.0,1.0,1.133,0.5483857681022615,2.0,-0.35776091503909757,-0.45211544208237603,0.09435452704327846
18,V1,d09142021,fX2Ey,final_decisions,1.0,0.0,18.0,1.0,0.0,60.0,54.0,Kupc1n.jpg,Rohla1.jpg,65.0,59.0,1.0,60.0,54.0,0.0,0.874,-0.5520444270522584,6.0,0.5386070918720477,0.2555435107422124,0.2830635811298353
19,V1,d09142021,fX2Ey,final_decisions,1.0,1.0,19.0,1.0,0.0,53.0,7.0,Macc1n.jpg,Macb1n.jpg,64.0,61.0,0.0,7.0,53.0,1.0,1.002,-0.008202477323383738,3.0,0.4914298283504085,0.34989803778549083,0.14153179056491766
20,V1,d09142021,fX2Ey,final_decisions,1.0,1.0,20.0,0.0,0.0,39.0,38.0,Kupb1n.jpg,Krasa1.jpg,55.0,42.0,1.0,39.0,38.0,0.0,1.005,0.004543818373386302,13.0,0.06683445665565546,-0.5464699691256545,0.61330442578131
21,V1,d09142021,fX2Ey,final_decisions,1.0,0.0,21.0,0.0,1.0,19.0,63.0,Picc1n.jpg,Lewia1.jpg,55.0,41.0,0.0,63.0,19.0,0.0,1.148,0.6121172465861136,14.0,0.06683445665565546,-0.5936472326472937,0.6604816893029491
22,V1,d09142021,fX2Ey,final_decisions,1.0,0.0,22.0,1.0,1.0,66.0,25.0,Vinca1.jpg,Dekob1.jpg,54.0,55.0,1.0,66.0,25.0,1.0,1.299,1.2536807966568955,-1.0,0.019657193134016232,0.06683445665565546,-0.04717726352163923
23,V1,d09142021,fX2Ey,final_decisions,1.0,1.0,23.0,1.0,1.0,29.0,34.0,Klinb1.jpg,Lasb1n.jpg,46.0,43.0,0.0,34.0,29.0,0.0,1.07,0.28071355847008117,3.0,-0.35776091503909757,-0.49929270560401523,0.14153179056491766
24,V1,d09142021,fX2Ey,final_decisions,1.0,0.0,24.0,1.0,1.0,30.0,60.0,Kraa1n.jpg,Kupc1n.jpg,65.0,65.0,0.0,60.0,30.0,0.0,0.983,-0.08892901673626365,0.0,0.5386070918720477,0.5386070918720477,0.0
25,V1,d09142021,fX2Ey,final_decisions,1.0,0.0,25.0,1.0,1.0,30.0,25.0,Kraa1n.jpg,Dekob1.jpg,65.0,55.0,1.0,30.0,25.0,1.0,1.275,1.1517104310827313,10.0,0.5386070918720477,0.06683445665565546,0.47177263521639223
26,V1,d09142021,fX2Ey,final_decisions,1.0,1.0,26.0,1.0,0.0,34.0,62.0,Lasb1n.jpg,Mona1n.jpg,43.0,46.0,1.0,34.0,62.0,0.0,0.952,-0.2206407389362256,-3.0,-0.49929270560401523,-0.35776091503909757,-0.14153179056491766
27,V1,d09142021,fX2Ey,final_decisions,1.0,0.0,27.0,1.0,0.0,60.0,66.0,Kupc1n.jpg,Vinca1.jpg,65.0,54.0,1.0,60.0,66.0,0.0,1.11,0.4506641677603547,11.0,0.5386070918720477,0.019657193134016232,0.5189498987380314
28,V1,d09142021,fX2Ey,final_decisions,1.0,0.0,28.0,1.0,1.0,54.0,25.0,Rohla1.jpg,Dekob1.jpg,59.0,55.0,0.0,25.0,54.0,0.0,1.202,0.8415505691279828,4.0,0.2555435107422124,0.06683445665565546,0.18870905408655692
29,V1,d09142021,fX2Ey,final_decisions,1.0,1.0,29.0,0.0,1.0,21.0,39.0,Kupkc1.jpg,Kupb1n.jpg,56.0,55.0,0.0,39.0,21.0,0.0,1.224,0.9350234042376332,1.0,0.11401172017729468,0.06683445665565546,0.047177263521639215
30,V1,d09142021,fX2Ey,final_decisions,1.0,0.0,30.0,0.0,1.0,19.0,69.0,Picc1n.jpg,Picad1.jpg,55.0,55.0,0.0,69.0,19.0,0.0,1.218,0.9095308128440922,0.0,0.06683445665565546,0.06683445665565546,0.0
31,V1,d09142021,fX2Ey,final_decisions,1.0,1.0,31.0,1.0,1.0,7.0,34.0,Macb1n.jpg,Lasb1n.jpg,61.0,43.0,1.0,7.0,34.0,1.0,0.9,-0.4415765310135807,18.0,0.34989803778549083,-0.49929270560401523,0.8491907433895061
32,V1,d09142021,fX2Ey,final_decisions,1.0,1.0,32.0,1.0,0.0,47.0,62.0,Vina1n.jpg,Mona1n.jpg,64.0,46.0,1.0,47.0,62.0,0.0,0.835,-0.7177462711102751,18.0,0.4914298283504085,-0.35776091503909757,0.8491907433895061
33,V1,d09142021,fX2Ey,final_decisions,1.0,1.0,33.0,0.0,1.0,18.0,58.0,Krab1n.jpg,Klinc1.jpg,44.0,59.0,1.0,18.0,58.0,1.0,0.977,-0.11442160812980467,-15.0,-0.45211544208237603,0.2555435107422124,-0.7076589528245885
34,V1,d09142021,fX2Ey,final_decisions,1.0,1.0,34.0,1.0,0.0,53.0,62.0,Macc1n.jpg,Mona1n.jpg,64.0,46.0,1.0,53.0,62.0,0.0,0.829,-0.7432388625038161,18.0,0.4914298283504085,-0.35776091503909757,0.8491907433895061
35,V1,d09142021,fX2Ey,final_decisions,1.0,0.0,35.0,0.0,1.0,55.0,63.0,Clia1n.jpg,Lewia1.jpg,43.0,41.0,0.0,63.0,55.0,0.0,0.804,-0.8494579933102365,2.0,-0.49929270560401523,-0.5936472326472937,0.09435452704327846
36,V1,d09142021,fX2Ey,final_decisions,2.0,1.0,36.0,0.0,1.0,18.0,22.0,Krab1n.jpg,Klina1.jpg,44.0,46.0,1.0,18.0,22.0,1.0,1.232,0.9690135260956879,-2.0,-0.45211544208237603,-0.35776091503909757,-0.09435452704327846
37,V1,d09142021,fX2Ey,final_decisions,2.0,1.0,37.0,1.0,0.0,47.0,62.0,Vina1n.jpg,Mona1n.jpg,64.0,46.0,1.0,47.0,62.0,0.0,0.691,-1.3295684645552592,18.0,0.4914298283504085,-0.35776091503909757,0.8491907433895061
38,V1,d09142021,fX2Ey,final_decisions,2.0,1.0,38.0,0.0,0.0,58.0,18.0,Klinc1.jpg,Krab1n.jpg,59.0,44.0,0.0,18.0,58.0,1.0,1.025,0.08951912301852305,15.0,0.2555435107422124,-0.45211544208237603,0.7076589528245885
39,V1,d09142021,fX2Ey,final_decisions,2.0,1.0,39.0,1.0,1.0,7.0,53.0,Macb1n.jpg,Macc1n.jpg,61.0,64.0,1.0,7.0,53.0,1.0,1.16,0.6631024293731956,-3.0,0.34989803778549083,0.4914298283504085,-0.14153179056491766
40,V1,d09142021,fX2Ey,final_decisions,2.0,0.0,40.0,1.0,0.0,60.0,54.0,Kupc1n.jpg,Rohla1.jpg,65.0,59.0,1.0,60.0,54.0,0.0,0.67,-1.4187925344326522,6.0,0.5386070918720477,0.2555435107422124,0.2830635811298353
41,V1,d09142021,fX2Ey,final_decisions,2.0,1.0,41.0,0.0,1.0,38.0,39.0,Krasa1.jpg,Kupb1n.jpg,42.0,55.0,0.0,39.0,38.0,0.0,1.339,1.423631405947169,-13.0,-0.5464699691256545,0.06683445665565546,-0.61330442578131
42,V1,d09142021,fX2Ey,final_decisions,2.0,0.0,42.0,1.0,1.0,54.0,50.0,Rohla1.jpg,Klic1n.jpg,59.0,66.0,1.0,54.0,50.0,1.0,1.231,0.9647647608634315,-7.0,0.2555435107422124,0.5857843553936869,-0.3302408446514745
43,V1,d09142021,fX2Ey,final_decisions,2.0,0.0,43.0,0.0,0.0,63.0,1.0,Lewia1.jpg,Monda1.jpg,41.0,55.0,1.0,63.0,1.0,0.0,0.772,-0.9854184807424553,-14.0,-0.5936472326472937,0.06683445665565546,-0.6604816893029491
44,V1,d09142021,fX2Ey,final_decisions,2.0,1.0,44.0,1.0,1.0,7.0,47.0,Macb1n.jpg,Vina1n.jpg,61.0,64.0,1.0,7.0,47.0,1.0,0.9,-0.4415765310135807,-3.0,0.34989803778549083,0.4914298283504085,-0.14153179056491766
45,V1,d09142021,fX2Ey,final_decisions,2.0,1.0,45.0,1.0,1.0,29.0,47.0,Klinb1.jpg,Vina1n.jpg,46.0,64.0,0.0,47.0,29.0,0.0,0.889,-0.48831294856840585,-18.0,-0.35776091503909757,0.4914298283504085,-0.8491907433895061
46,V1,d09142021,fX2Ey,final_decisions,2.0,1.0,46.0,1.0,0.0,34.0,29.0,Lasb1n.jpg,Klinb1.jpg,43.0,46.0,1.0,34.0,29.0,0.0,0.705,-1.2700857513036634,-3.0,-0.49929270560401523,-0.35776091503909757,-0.14153179056491766
47,V1,d09142021,fX2Ey,final_decisions,2.0,1.0,47.0,0.0,0.0,22.0,21.0,Klina1.jpg,Kupkc1.jpg,46.0,56.0,1.0,22.0,21.0,0.0,0.93,-0.31411357404587553,-10.0,-0.35776091503909757,0.11401172017729468,-0.47177263521639223
48,V1,d09142021,fX2Ey,final_decisions,2.0,0.0,48.0,1.0,0.0,25.0,66.0,Dekob1.jpg,Vinca1.jpg,55.0,54.0,0.0,66.0,25.0,1.0,0.826,-0.7559851582005866,1.0,0.06683445665565546,0.019657193134016232,0.04717726352163923
49,V1,d09142021,fX2Ey,final_decisions,2.0,1.0,49.0,0.0,0.0,22.0,38.0,Klina1.jpg,Krasa1.jpg,46.0,42.0,1.0,22.0,38.0,0.0,0.779,-0.9556771241166575,4.0,-0.35776091503909757,-0.5464699691256545,0.18870905408655692
50,V1,d09142021,fX2Ey,final_decisions,2.0,0.0,50.0,1.0,1.0,30.0,50.0,Kraa1n.jpg,Klic1n.jpg,65.0,66.0,1.0,30.0,50.0,1.0,0.811,-0.8197166366844387,-1.0,0.5386070918720477,0.5857843553936869,-0.0471772635216392
51,V1,d09142021,fX2Ey,final_decisions,2.0,0.0,51.0,1.0,0.0,60.0,66.0,Kupc1n.jpg,Vinca1.jpg,65.0,54.0,1.0,60.0,66.0,0.0,0.761,-1.0321548982972806,11.0,0.5386070918720477,0.019657193134016232,0.5189498987380314
52,V1,d09142021,fX2Ey,final_decisions,2.0,1.0,52.0,1.0,0.0,34.0,7.0,Lasb1n.jpg,Macb1n.jpg,43.0,61.0,0.0,7.0,34.0,1.0,0.767,-1.0066623069037395,-18.0,-0.49929270560401523,0.34989803778549083,-0.8491907433895061
53,V1,d09142021,fX2Ey,final_decisions,2.0,0.0,53.0,0.0,1.0,55.0,11.0,Clia1n.jpg,Clifa1.jpg,43.0,45.0,0.0,11.0,55.0,0.0,0.842,-0.6880049144844772,-2.0,-0.49929270560401523,-0.4049381785607368,-0.09435452704327846
54,V1,d09142021,fX2Ey,final_decisions,2.0,0.0,54.0,0.0,1.0,19.0,69.0,Picc1n.jpg,Picad1.jpg,55.0,55.0,0.0,69.0,19.0,0.0,0.806,-0.8409604628457229,0.0,0.06683445665565546,0.06683445665565546,0.0
55,V1,d09142021,fX2Ey,final_decisions,2.0,1.0,55.0,0.0,1.0,21.0,39.0,Kupkc1.jpg,Kupb1n.jpg,56.0,55.0,0.0,39.0,21.0,0.0,0.841,-0.692253679716734,1.0,0.11401172017729468,0.06683445665565546,0.047177263521639215
56,V1,d09142021,fX2Ey,final_decisions,2.0,0.0,56.0,0.0,1.0,19.0,11.0,Picc1n.jpg,Clifa1.jpg,55.0,45.0,0.0,11.0,19.0,0.0,0.792,-0.9004431760973186,10.0,0.06683445665565546,-0.4049381785607368,0.47177263521639223
57,V1,d09142021,fX2Ey,final_decisions,2.0,0.0,57.0,0.0,1.0,55.0,69.0,Clia1n.jpg,Picad1.jpg,43.0,55.0,0.0,69.0,55.0,0.0,1.01,0.02578764453467096,-12.0,-0.49929270560401523,0.06683445665565546,-0.5661271622596706
58,V1,d09142021,fX2Ey,final_decisions,2.0,0.0,58.0,1.0,1.0,30.0,60.0,Kraa1n.jpg,Kupc1n.jpg,65.0,65.0,0.0,60.0,30.0,0.0,1.274,1.147461665850475,0.0,0.5386070918720477,0.5386070918720477,0.0
59,V1,d09142021,fX2Ey,final_decisions,2.0,0.0,59.0,0.0,0.0,69.0,1.0,Picad1.jpg,Monda1.jpg,55.0,55.0,0.0,1.0,69.0,1.0,1.387,1.6275721370954972,0.0,0.06683445665565546,0.06683445665565546,0.0
60,V1,d09142021,fX2Ey,final_decisions,2.0,1.0,60.0,0.0,1.0,18.0,39.0,Krab1n.jpg,Kupb1n.jpg,44.0,55.0,1.0,18.0,39.0,1.0,1.307,1.2876709185149502,-11.0,-0.45211544208237603,0.06683445665565546,-0.5189498987380314
61,V1,d09142021,fX2Ey,final_decisions,2.0,0.0,61.0,1.0,0.0,50.0,66.0,Klic1n.jpg,Vinca1.jpg,66.0,54.0,0.0,66.0,50.0,1.0,1.026,0.09376788825078035,12.0,0.5857843553936869,0.019657193134016232,0.5661271622596706
62,V1,d09142021,fX2Ey,final_decisions,2.0,0.0,62.0,0.0,0.0,11.0,1.0,Clifa1.jpg,Monda1.jpg,45.0,55.0,1.0,11.0,1.0,0.0,0.999,-0.02094877302015425,-10.0,-0.4049381785607368,0.06683445665565546,-0.47177263521639223
63,V1,d09142021,fX2Ey,final_decisions,2.0,0.0,63.0,1.0,1.0,30.0,25.0,Kraa1n.jpg,Dekob1.jpg,65.0,55.0,1.0,30.0,25.0,1.0,1.019,0.06402653162498202,10.0,0.5386070918720477,0.06683445665565546,0.47177263521639223
64,V1,d09142021,fX2Ey,final_decisions,2.0,1.0,64.0,0.0,0.0,58.0,21.0,Klinc1.jpg,Kupkc1.jpg,59.0,56.0,0.0,21.0,58.0,1.0,1.028,0.10226541871529403,3.0,0.2555435107422124,0.11401172017729468,0.14153179056491771
65,V1,d09142021,fX2Ey,final_decisions,2.0,1.0,65.0,1.0,1.0,62.0,53.0,Mona1n.jpg,Macc1n.jpg,46.0,64.0,0.0,53.0,62.0,0.0,0.888,-0.4925617138006627,-18.0,-0.35776091503909757,0.4914298283504085,-0.8491907433895061
66,V1,d09142021,fX2Ey,final_decisions,2.0,1.0,66.0,0.0,1.0,38.0,58.0,Krasa1.jpg,Klinc1.jpg,42.0,59.0,0.0,58.0,38.0,0.0,1.356,1.4958604148955357,-17.0,-0.5464699691256545,0.2555435107422124,-0.8020134798678669
67,V1,d09142021,fX2Ey,final_decisions,2.0,0.0,67.0,1.0,1.0,54.0,25.0,Rohla1.jpg,Dekob1.jpg,59.0,55.0,1.0,54.0,25.0,1.0,1.467,1.9674733556760442,4.0,0.2555435107422124,0.06683445665565546,0.18870905408655692
68,V1,d09142021,fX2Ey,final_decisions,2.0,0.0,68.0,0.0,1.0,19.0,63.0,Picc1n.jpg,Lewia1.jpg,55.0,41.0,0.0,63.0,19.0,0.0,1.147,0.6078684813538572,14.0,0.06683445665565546,-0.5936472326472937,0.6604816893029491
69,V1,d09142021,fX2Ey,final_decisions,2.0,1.0,69.0,1.0,0.0,53.0,29.0,Macc1n.jpg,Klinb1.jpg,64.0,46.0,1.0,53.0,29.0,0.0,0.819,-0.7857265148263844,18.0,0.4914298283504085,-0.35776091503909757,0.8491907433895061
70,V1,d09142021,fX2Ey,final_decisions,2.0,1.0,70.0,1.0,1.0,62.0,34.0,Mona1n.jpg,Lasb1n.jpg,46.0,43.0,0.0,34.0,62.0,0.0,0.778,-0.9599258893489143,3.0,-0.35776091503909757,-0.49929270560401523,0.14153179056491766
71,V1,d09142021,fX2Ey,final_decisions,2.0,0.0,71.0,0.0,0.0,63.0,55.0,Lewia1.jpg,Clia1n.jpg,41.0,43.0,1.0,63.0,55.0,0.0,1.202,0.8415505691279828,-2.0,-0.5936472326472937,-0.49929270560401523,-0.09435452704327846
72,V1,d09142021,fX2Ey,final_decisions,3.0,1.0,72.0,0.0,1.0,18.0,39.0,Krab1n.jpg,Kupb1n.jpg,44.0,55.0,1.0,18.0,39.0,1.0,1.049,0.19148948859268713,-11.0,-0.45211544208237603,0.06683445665565546,-0.5189498987380314
73,V1,d09142021,fX2Ey,final_decisions,3.0,1.0,73.0,0.0,0.0,58.0,18.0,Klinc1.jpg,Krab1n.jpg,59.0,44.0,0.0,18.0,58.0,1.0,0.714,-1.231846864213352,15.0,0.2555435107422124,-0.45211544208237603,0.7076589528245885
74,V1,d09142021,fX2Ey,final_decisions,3.0,1.0,74.0,1.0,0.0,53.0,7.0,Macc1n.jpg,Macb1n.jpg,64.0,61.0,0.0,7.0,53.0,1.0,1.283,1.185700552940786,3.0,0.4914298283504085,0.34989803778549083,0.14153179056491766
75,V1,d09142021,fX2Ey,final_decisions,3.0,1.0,75.0,0.0,0.0,58.0,38.0,Klinc1.jpg,Krasa1.jpg,59.0,42.0,1.0,58.0,38.0,0.0,0.878,-0.5350493661232311,17.0,0.2555435107422124,-0.5464699691256545,0.8020134798678669
76,V1,d09142021,fX2Ey,final_decisions,3.0,1.0,76.0,1.0,1.0,62.0,34.0,Mona1n.jpg,Lasb1n.jpg,46.0,43.0,0.0,34.0,62.0,0.0,0.655,-1.482524012916505,3.0,-0.35776091503909757,-0.49929270560401523,0.14153179056491766
77,V1,d09142021,fX2Ey,final_decisions,3.0,0.0,77.0,0.0,1.0,19.0,63.0,Picc1n.jpg,Lewia1.jpg,55.0,41.0,0.0,63.0,19.0,0.0,0.567,-1.8564153533551064,14.0,0.06683445665565546,-0.5936472326472937,0.6604816893029491
78,V1,d09142021,fX2Ey,final_decisions,3.0,1.0,78.0,0.0,1.0,18.0,22.0,Krab1n.jpg,Klina1.jpg,44.0,46.0,1.0,18.0,22.0,1.0,1.198,0.8245555081989554,-2.0,-0.45211544208237603,-0.35776091503909757,-0.09435452704327846
79,V1,d09142021,fX2Ey,final_decisions,3.0,1.0,79.0,1.0,0.0,34.0,7.0,Lasb1n.jpg,Macb1n.jpg,43.0,61.0,0.0,7.0,34.0,1.0,0.834,-0.7219950363425319,-18.0,-0.49929270560401523,0.34989803778549083,-0.8491907433895061
80,V1,d09142021,fX2Ey,final_decisions,3.0,1.0,80.0,0.0,1.0,38.0,22.0,Krasa1.jpg,Klina1.jpg,42.0,46.0,0.0,22.0,38.0,0.0,0.852,-0.6455172621619089,-4.0,-0.5464699691256545,-0.35776091503909757,-0.18870905408655692
81,V1,d09142021,fX2Ey,final_decisions,3.0,1.0,81.0,1.0,1.0,62.0,47.0,Mona1n.jpg,Vina1n.jpg,46.0,64.0,0.0,47.0,62.0,0.0,0.557,-1.8989030056776743,-18.0,-0.35776091503909757,0.4914298283504085,-0.8491907433895061
82,V1,d09142021,fX2Ey,final_decisions,3.0,0.0,82.0,0.0,1.0,55.0,69.0,Clia1n.jpg,Picad1.jpg,43.0,55.0,1.0,55.0,69.0,1.0,1.096,0.39118145450875896,-12.0,-0.49929270560401523,0.06683445665565546,-0.5661271622596706
83,V1,d09142021,fX2Ey,final_decisions,3.0,1.0,83.0,0.0,1.0,21.0,22.0,Kupkc1.jpg,Klina1.jpg,56.0,46.0,0.0,22.0,21.0,0.0,0.952,-0.2206407389362256,10.0,0.11401172017729468,-0.35776091503909757,0.47177263521639223
84,V1,d09142021,fX2Ey,final_decisions,3.0,1.0,84.0,0.0,0.0,39.0,21.0,Kupb1n.jpg,Kupkc1.jpg,55.0,56.0,1.0,39.0,21.0,0.0,1.108,0.442166637295841,-1.0,0.06683445665565546,0.11401172017729468,-0.047177263521639215
85,V1,d09142021,fX2Ey,final_decisions,3.0,0.0,85.0,0.0,0.0,63.0,55.0,Lewia1.jpg,Clia1n.jpg,41.0,43.0,1.0,63.0,55.0,0.0,1.005,0.004543818373386302,-2.0,-0.5936472326472937,-0.49929270560401523,-0.09435452704327846
86,V1,d09142021,fX2Ey,final_decisions,3.0,0.0,86.0,0.0,1.0,19.0,69.0,Picc1n.jpg,Picad1.jpg,55.0,55.0,0.0,69.0,19.0,0.0,0.969,-0.14841172998785937,0.0,0.06683445665565546,0.06683445665565546,0.0
87,V1,d09142021,fX2Ey,final_decisions,3.0,0.0,87.0,0.0,1.0,19.0,11.0,Picc1n.jpg,Clifa1.jpg,55.0,45.0,0.0,11.0,19.0,0.0,1.084,0.34019627172167693,10.0,0.06683445665565546,-0.4049381785607368,0.47177263521639223
88,V1,d09142021,fX2Ey,final_decisions,3.0,0.0,88.0,0.0,0.0,11.0,55.0,Clifa1.jpg,Clia1n.jpg,45.0,43.0,1.0,11.0,55.0,0.0,0.919,-0.36084999160070075,2.0,-0.4049381785607368,-0.49929270560401523,0.09435452704327846
89,V1,d09142021,fX2Ey,final_decisions,3.0,0.0,89.0,0.0,1.0,1.0,11.0,Monda1.jpg,Clifa1.jpg,55.0,45.0,0.0,11.0,1.0,0.0,1.184,0.7650727949473597,10.0,0.06683445665565546,-0.4049381785607368,0.47177263521639223
90,V1,d09142021,fX2Ey,final_decisions,3.0,1.0,90.0,0.0,1.0,38.0,39.0,Krasa1.jpg,Kupb1n.jpg,42.0,55.0,0.0,39.0,38.0,0.0,0.971,-0.1399141995233457,-13.0,-0.5464699691256545,0.06683445665565546,-0.61330442578131
91,V1,d09142021,fX2Ey,final_decisions,3.0,1.0,91.0,1.0,0.0,34.0,29.0,Lasb1n.jpg,Klinb1.jpg,43.0,46.0,1.0,34.0,29.0,0.0,0.77,-0.993916011206969,-3.0,-0.49929270560401523,-0.35776091503909757,-0.14153179056491766
92,V1,d09142021,fX2Ey,final_decisions,3.0,0.0,92.0,1.0,0.0,50.0,66.0,Klic1n.jpg,Vinca1.jpg,66.0,54.0,0.0,66.0,50.0,1.0,0.86,-0.6115271403038541,12.0,0.5857843553936869,0.019657193134016232,0.5661271622596706
93,V1,d09142021,fX2Ey,final_decisions,3.0,0.0,93.0,0.0,0.0,69.0,1.0,Picad1.jpg,Monda1.jpg,55.0,55.0,1.0,69.0,1.0,0.0,0.848,-0.6625123230909362,0.0,0.06683445665565546,0.06683445665565546,0.0
94,V1,d09142021,fX2Ey,final_decisions,3.0,0.0,94.0,1.0,1.0,30.0,60.0,Kraa1n.jpg,Kupc1n.jpg,65.0,65.0,0.0,60.0,30.0,0.0,0.927,-0.3268598697426461,0.0,0.5386070918720477,0.5386070918720477,0.0
95,V1,d09142021,fX2Ey,final_decisions,3.0,1.0,95.0,1.0,1.0,29.0,47.0,Klinb1.jpg,Vina1n.jpg,46.0,64.0,0.0,47.0,29.0,0.0,0.755,-1.0576474896908217,-18.0,-0.35776091503909757,0.4914298283504085,-0.8491907433895061
96,V1,d09142021,fX2Ey,final_decisions,3.0,0.0,96.0,0.0,0.0,63.0,1.0,Lewia1.jpg,Monda1.jpg,41.0,55.0,1.0,63.0,1.0,0.0,0.857,-0.6242734360006247,-14.0,-0.5936472326472937,0.06683445665565546,-0.6604816893029491
97,V1,d09142021,fX2Ey,final_decisions,3.0,0.0,97.0,1.0,0.0,60.0,54.0,Kupc1n.jpg,Rohla1.jpg,65.0,59.0,1.0,60.0,54.0,0.0,0.644,-1.52926043047133,6.0,0.5386070918720477,0.2555435107422124,0.2830635811298353
98,V1,d09142021,fX2Ey,final_decisions,3.0,1.0,98.0,1.0,1.0,62.0,53.0,Mona1n.jpg,Macc1n.jpg,46.0,64.0,0.0,53.0,62.0,0.0,0.611,-1.6694696831358056,-18.0,-0.35776091503909757,0.4914298283504085,-0.8491907433895061
99,V1,d09142021,fX2Ey,final_decisions,3.0,1.0,99.0,0.0,0.0,58.0,21.0,Klinc1.jpg,Kupkc1.jpg,59.0,56.0,0.0,21.0,58.0,1.0,1.398,1.674308554650322,3.0,0.2555435107422124,0.11401172017729468,0.14153179056491771
100,V1,d09142021,fX2Ey,final_decisions,3.0,0.0,100.0,1.0,1.0,66.0,25.0,Vinca1.jpg,Dekob1.jpg,54.0,55.0,1.0,66.0,25.0,1.0,0.823,-0.7687314538973571,-1.0,0.019657193134016232,0.06683445665565546,-0.04717726352163923
101,V1,d09142021,fX2Ey,final_decisions,3.0,1.0,101.0,1.0,1.0,29.0,53.0,Klinb1.jpg,Macc1n.jpg,46.0,64.0,0.0,53.0,29.0,0.0,0.812,-0.8154678714521819,-18.0,-0.35776091503909757,0.4914298283504085,-0.8491907433895061
102,V1,d09142021,fX2Ey,final_decisions,3.0,0.0,102.0,1.0,1.0,54.0,25.0,Rohla1.jpg,Dekob1.jpg,59.0,55.0,1.0,54.0,25.0,1.0,1.206,0.8585456300570101,4.0,0.2555435107422124,0.06683445665565546,0.18870905408655692
103,V1,d09142021,fX2Ey,final_decisions,3.0,0.0,103.0,1.0,0.0,25.0,30.0,Dekob1.jpg,Kraa1n.jpg,55.0,65.0,0.0,30.0,25.0,1.0,0.71,-1.2488419251423792,-10.0,0.06683445665565546,0.5386070918720477,-0.47177263521639223
104,V1,d09142021,fX2Ey,final_decisions,3.0,0.0,104.0,1.0,0.0,50.0,30.0,Klic1n.jpg,Kraa1n.jpg,66.0,65.0,0.0,30.0,50.0,1.0,0.913,-0.3863425829942418,1.0,0.5857843553936869,0.5386070918720477,0.0471772635216392
105,V1,d09142021,fX2Ey,final_decisions,3.0,1.0,105.0,1.0,0.0,47.0,7.0,Vina1n.jpg,Macb1n.jpg,64.0,61.0,0.0,7.0,47.0,1.0,1.601,2.5368078967984595,3.0,0.4914298283504085,0.34989803778549083,0.14153179056491766
106,V1,d09142021,fX2Ey,final_decisions,3.0,0.0,106.0,1.0,1.0,66.0,60.0,Vinca1.jpg,Kupc1n.jpg,54.0,65.0,0.0,60.0,66.0,0.0,0.667,-1.4315388301294227,-11.0,0.019657193134016232,0.5386070918720477,-0.5189498987380314
107,V1,d09142021,fX2Ey,final_decisions,3.0,0.0,107.0,1.0,1.0,54.0,50.0,Rohla1.jpg,Klic1n.jpg,59.0,66.0,1.0,54.0,50.0,1.0,0.95,-0.22913826940073928,-7.0,0.2555435107422124,0.5857843553936869,-0.3302408446514745
108,V1,d09142021,fX2Ey,final_decisions,4.0,1.0,108.0,1.0,1.0,7.0,47.0,Macb1n.jpg,Vina1n.jpg,61.0,64.0,1.0,7.0,47.0,1.0,1.099,0.403927750205529,-3.0,0.34989803778549083,0.4914298283504085,-0.14153179056491766
109,V1,d09142021,fX2Ey,final_decisions,4.0,0.0,109.0,1.0,0.0,50.0,54.0,Klic1n.jpg,Rohla1.jpg,66.0,59.0,0.0,54.0,50.0,1.0,0.794,-0.891945645632805,7.0,0.5857843553936869,0.2555435107422124,0.3302408446514745
110,V1,d09142021,fX2Ey,final_decisions,4.0,0.0,110.0,1.0,1.0,30.0,60.0,Kraa1n.jpg,Kupc1n.jpg,65.0,65.0,0.0,60.0,30.0,0.0,1.204,0.8500480995924964,0.0,0.5386070918720477,0.5386070918720477,0.0
111,V1,d09142021,fX2Ey,final_decisions,4.0,0.0,111.0,0.0,0.0,69.0,19.0,Picad1.jpg,Picc1n.jpg,55.0,55.0,1.0,69.0,19.0,0.0,0.857,-0.6242734360006247,0.0,0.06683445665565546,0.06683445665565546,0.0
112,V1,d09142021,fX2Ey,final_decisions,4.0,0.0,112.0,0.0,1.0,1.0,63.0,Monda1.jpg,Lewia1.jpg,55.0,41.0,0.0,63.0,1.0,0.0,1.121,0.49740058531517944,14.0,0.06683445665565546,-0.5936472326472937,0.6604816893029491
113,V1,d09142021,fX2Ey,final_decisions,4.0,1.0,113.0,1.0,1.0,7.0,34.0,Macb1n.jpg,Lasb1n.jpg,61.0,43.0,1.0,7.0,34.0,1.0,1.189,0.7863166211086443,18.0,0.34989803778549083,-0.49929270560401523,0.8491907433895061
114,V1,d09142021,fX2Ey,final_decisions,4.0,1.0,114.0,0.0,0.0,58.0,38.0,Klinc1.jpg,Krasa1.jpg,59.0,42.0,1.0,58.0,38.0,0.0,0.738,-1.1298764986391878,17.0,0.2555435107422124,-0.5464699691256545,0.8020134798678669
115,V1,d09142021,fX2Ey,final_decisions,4.0,1.0,115.0,1.0,0.0,53.0,62.0,Macc1n.jpg,Mona1n.jpg,64.0,46.0,1.0,53.0,62.0,0.0,1.037,0.1405043058056051,18.0,0.4914298283504085,-0.35776091503909757,0.8491907433895061
116,V1,d09142021,fX2Ey,final_decisions,4.0,0.0,116.0,0.0,1.0,1.0,11.0,Monda1.jpg,Clifa1.jpg,55.0,45.0,0.0,11.0,1.0,0.0,0.819,-0.7857265148263844,10.0,0.06683445665565546,-0.4049381785607368,0.47177263521639223
117,V1,d09142021,fX2Ey,final_decisions,4.0,1.0,117.0,0.0,1.0,38.0,22.0,Krasa1.jpg,Klina1.jpg,42.0,46.0,0.0,22.0,38.0,0.0,0.83,-0.7389900972715593,-4.0,-0.5464699691256545,-0.35776091503909757,-0.18870905408655692
118,V1,d09142021,fX2Ey,final_decisions,4.0,1.0,118.0,0.0,0.0,39.0,18.0,Kupb1n.jpg,Krab1n.jpg,55.0,44.0,0.0,18.0,39.0,1.0,1.19,0.7905653863409007,11.0,0.06683445665565546,-0.45211544208237603,0.5189498987380314
119,V1,d09142021,fX2Ey,final_decisions,4.0,0.0,119.0,1.0,1.0,66.0,50.0,Vinca1.jpg,Klic1n.jpg,54.0,66.0,1.0,66.0,50.0,1.0,0.78,-0.9514283588844007,-12.0,0.019657193134016232,0.5857843553936869,-0.5661271622596706
120,V1,d09142021,fX2Ey,final_decisions,4.0,0.0,120.0,1.0,1.0,54.0,25.0,Rohla1.jpg,Dekob1.jpg,59.0,55.0,1.0,54.0,25.0,1.0,0.759,-1.0406524287617942,4.0,0.2555435107422124,0.06683445665565546,0.18870905408655692
121,V1,d09142021,fX2Ey,final_decisions,4.0,1.0,121.0,0.0,0.0,39.0,21.0,Kupb1n.jpg,Kupkc1.jpg,55.0,56.0,0.0,21.0,39.0,1.0,1.148,0.6121172465861136,-1.0,0.06683445665565546,0.11401172017729468,-0.047177263521639215
122,V1,d09142021,fX2Ey,final_decisions,4.0,0.0,122.0,1.0,0.0,60.0,66.0,Kupc1n.jpg,Vinca1.jpg,65.0,54.0,1.0,60.0,66.0,0.0,0.699,-1.2955783426972045,11.0,0.5386070918720477,0.019657193134016232,0.5189498987380314
123,V1,d09142021,fX2Ey,final_decisions,4.0,1.0,123.0,0.0,1.0,38.0,39.0,Krasa1.jpg,Kupb1n.jpg,42.0,55.0,0.0,39.0,38.0,0.0,0.809,-0.8282141671489524,-13.0,-0.5464699691256545,0.06683445665565546,-0.61330442578131
124,V1,d09142021,fX2Ey,final_decisions,4.0,0.0,124.0,0.0,1.0,55.0,11.0,Clia1n.jpg,Clifa1.jpg,43.0,45.0,0.0,11.0,55.0,0.0,0.857,-0.6242734360006247,-2.0,-0.49929270560401523,-0.4049381785607368,-0.09435452704327846
125,V1,d09142021,fX2Ey,final_decisions,4.0,0.0,125.0,0.0,0.0,63.0,19.0,Lewia1.jpg,Picc1n.jpg,41.0,55.0,1.0,63.0,19.0,0.0,0.809,-0.8282141671489524,-14.0,-0.5936472326472937,0.06683445665565546,-0.6604816893029491
126,V1,d09142021,fX2Ey,final_decisions,4.0,1.0,126.0,0.0,1.0,21.0,22.0,Kupkc1.jpg,Klina1.jpg,56.0,46.0,0.0,22.0,21.0,0.0,0.871,-0.564790722749029,10.0,0.11401172017729468,-0.35776091503909757,0.47177263521639223
127,V1,d09142021,fX2Ey,final_decisions,4.0,0.0,127.0,0.0,1.0,1.0,69.0,Monda1.jpg,Picad1.jpg,55.0,55.0,0.0,69.0,1.0,0.0,1.485,2.043951129856667,0.0,0.06683445665565546,0.06683445665565546,0.0
128,V1,d09142021,fX2Ey,final_decisions,4.0,0.0,128.0,1.0,0.0,25.0,30.0,Dekob1.jpg,Kraa1n.jpg,55.0,65.0,0.0,30.0,25.0,1.0,0.79,-0.9089407065618322,-10.0,0.06683445665565546,0.5386070918720477,-0.47177263521639223
129,V1,d09142021,fX2Ey,final_decisions,4.0,1.0,129.0,1.0,0.0,53.0,7.0,Macc1n.jpg,Macb1n.jpg,64.0,61.0,0.0,7.0,53.0,1.0,1.007,0.013041348837899976,3.0,0.4914298283504085,0.34989803778549083,0.14153179056491766
130,V1,d09142021,fX2Ey,final_decisions,4.0,1.0,130.0,1.0,0.0,34.0,29.0,Lasb1n.jpg,Klinb1.jpg,43.0,46.0,1.0,34.0,29.0,0.0,0.804,-0.8494579933102365,-3.0,-0.49929270560401523,-0.35776091503909757,-0.14153179056491766
131,V1,d09142021,fX2Ey,final_decisions,4.0,0.0,131.0,0.0,0.0,63.0,55.0,Lewia1.jpg,Clia1n.jpg,41.0,43.0,1.0,63.0,55.0,0.0,1.001,-0.012451242555641047,-2.0,-0.5936472326472937,-0.49929270560401523,-0.09435452704327846
132,V1,d09142021,fX2Ey,final_decisions,4.0,1.0,132.0,0.0,0.0,58.0,21.0,Klinc1.jpg,Kupkc1.jpg,59.0,56.0,0.0,21.0,58.0,1.0,1.05,0.19573825382494445,3.0,0.2555435107422124,0.11401172017729468,0.14153179056491771
133,V1,d09142021,fX2Ey,final_decisions,4.0,1.0,133.0,1.0,1.0,29.0,53.0,Klinb1.jpg,Macc1n.jpg,46.0,64.0,0.0,53.0,29.0,0.0,1.01,0.02578764453467096,-18.0,-0.35776091503909757,0.4914298283504085,-0.8491907433895061
134,V1,d09142021,fX2Ey,final_decisions,4.0,0.0,134.0,0.0,0.0,69.0,55.0,Picad1.jpg,Clia1n.jpg,55.0,43.0,1.0,69.0,55.0,0.0,1.056,0.22123084521848546,12.0,0.06683445665565546,-0.49929270560401523,0.5661271622596706
135,V1,d09142021,fX2Ey,final_decisions,4.0,1.0,135.0,1.0,1.0,62.0,47.0,Mona1n.jpg,Vina1n.jpg,46.0,64.0,0.0,47.0,62.0,0.0,0.887,-0.4968104790329195,-18.0,-0.35776091503909757,0.4914298283504085,-0.8491907433895061
136,V1,d09142021,fX2Ey,final_decisions,4.0,1.0,136.0,1.0,1.0,29.0,47.0,Klinb1.jpg,Vina1n.jpg,46.0,64.0,0.0,47.0,29.0,0.0,0.762,-1.0279061330650237,-18.0,-0.35776091503909757,0.4914298283504085,-0.8491907433895061
137,V1,d09142021,fX2Ey,final_decisions,4.0,1.0,137.0,0.0,1.0,18.0,58.0,Krab1n.jpg,Klinc1.jpg,44.0,59.0,0.0,58.0,18.0,0.0,1.348,1.461870293037481,-15.0,-0.45211544208237603,0.2555435107422124,-0.7076589528245885
138,V1,d09142021,fX2Ey,final_decisions,4.0,0.0,138.0,1.0,1.0,66.0,25.0,Vinca1.jpg,Dekob1.jpg,54.0,55.0,1.0,66.0,25.0,1.0,1.077,0.3104549150958786,-1.0,0.019657193134016232,0.06683445665565546,-0.04717726352163923
139,V1,d09142021,fX2Ey,final_decisions,4.0,1.0,139.0,0.0,1.0,18.0,22.0,Krab1n.jpg,Klina1.jpg,44.0,46.0,0.0,22.0,18.0,0.0,0.756,-1.0533987244585648,-2.0,-0.45211544208237603,-0.35776091503909757,-0.09435452704327846
140,V1,d09142021,fX2Ey,final_decisions,4.0,1.0,140.0,1.0,0.0,34.0,62.0,Lasb1n.jpg,Mona1n.jpg,43.0,46.0,1.0,34.0,62.0,0.0,0.82,-0.7814777495941276,-3.0,-0.49929270560401523,-0.35776091503909757,-0.14153179056491766
141,V1,d09142021,fX2Ey,final_decisions,4.0,0.0,141.0,0.0,1.0,19.0,11.0,Picc1n.jpg,Clifa1.jpg,55.0,45.0,0.0,11.0,19.0,0.0,0.758,-1.0449011939940511,10.0,0.06683445665565546,-0.4049381785607368,0.47177263521639223
142,V1,d09142021,fX2Ey,final_decisions,4.0,0.0,142.0,1.0,0.0,60.0,54.0,Kupc1n.jpg,Rohla1.jpg,65.0,59.0,1.0,60.0,54.0,0.0,1.509,2.1459214954308306,6.0,0.5386070918720477,0.2555435107422124,0.2830635811298353
143,V1,d09142021,fX2Ey,final_decisions,4.0,0.0,143.0,1.0,1.0,30.0,50.0,Kraa1n.jpg,Klic1n.jpg,65.0,66.0,1.0,30.0,50.0,1.0,0.803,-0.8537067585424934,-1.0,0.5386070918720477,0.5857843553936869,-0.0471772635216392
144,V1,d09142021,CDRCj,final_decisions,1.0,1.0,0.0,0.0,0.0,11.0,37.0,Clifa1.jpg,Deka1n.jpg,63.0,40.0,1.0,11.0,37.0,0.0,1.253,1.8996840094813277,23.0,0.3320407628137517,-0.7563588872645794,1.088399650078331
145,V1,d09142021,CDRCj,final_decisions,1.0,0.0,1.0,1.0,0.0,31.0,63.0,Picac1.jpg,Lewia1.jpg,68.0,68.0,0.0,63.0,31.0,1.0,1.183,1.5715404945199407,0.0,0.5686493823959976,0.5686493823959976,0.0
146,V1,d09142021,CDRCj,final_decisions,1.0,0.0,2.0,0.0,1.0,56.0,26.0,Clib1n.jpg,Klid1n.jpg,61.0,58.0,0.0,26.0,56.0,0.0,1.44,2.7762959708781776,3.0,0.23739731498085334,0.0954321432315058,0.14196517174934753
147,V1,d09142021,CDRCj,final_decisions,1.0,1.0,3.0,0.0,1.0,48.0,11.0,Maca1n.jpg,Clifa1.jpg,67.0,63.0,0.0,11.0,48.0,0.0,1.308,2.15751105695099,4.0,0.5213276584795484,0.3320407628137517,0.1892868956657967
148,V1,d09142021,CDRCj,final_decisions,1.0,0.0,4.0,1.0,1.0,42.0,21.0,Mackc1.jpg,Kupkc1.jpg,68.0,67.0,1.0,42.0,21.0,1.0,1.334,2.2793929339366485,1.0,0.5686493823959976,0.5213276584795484,0.047321723916449177
149,V1,d09142021,CDRCj,final_decisions,1.0,1.0,5.0,1.0,1.0,44.0,55.0,Mackb1.jpg,Clia1n.jpg,42.0,57.0,1.0,44.0,55.0,1.0,1.218,1.735612252000634,-15.0,-0.6617154394316811,0.04811041931505662,-0.7098258587467378
150,V1,d09142021,CDRCj,final_decisions,1.0,0.0,6.0,0.0,0.0,46.0,56.0,Lewb1n.jpg,Clib1n.jpg,59.0,61.0,0.0,56.0,46.0,1.0,1.154,1.4355953240359367,-2.0,0.142753867147955,0.23739731498085334,-0.09464344783289835
151,V1,d09142021,CDRCj,final_decisions,1.0,0.0,7.0,1.0,1.0,42.0,53.0,Mackc1.jpg,Macc1n.jpg,68.0,63.0,1.0,42.0,53.0,1.0,0.984,0.63867535912971,5.0,0.5686493823959976,0.3320407628137517,0.23660861958224588
152,V1,d09142021,CDRCj,final_decisions,1.0,0.0,8.0,0.0,1.0,30.0,26.0,Kraa1n.jpg,Klid1n.jpg,38.0,58.0,1.0,30.0,26.0,1.0,1.226,1.7731143679962214,-20.0,-0.8510023350974778,0.0954321432315058,-0.9464344783289836
153,V1,d09142021,CDRCj,final_decisions,1.0,1.0,9.0,0.0,1.0,29.0,45.0,Klinb1.jpg,Lasc1n.jpg,41.0,67.0,1.0,29.0,45.0,1.0,1.384,2.513781158909067,-26.0,-0.7090371633481303,0.5213276584795484,-1.2303648218276786
154,V1,d09142021,CDRCj,final_decisions,1.0,0.0,10.0,1.0,0.0,53.0,63.0,Macc1n.jpg,Lewia1.jpg,63.0,68.0,0.0,63.0,53.0,1.0,1.092,1.144953925070137,-5.0,0.3320407628137517,0.5686493823959976,-0.23660861958224588
155,V1,d09142021,CDRCj,final_decisions,1.0,1.0,11.0,0.0,1.0,37.0,10.0,Deka1n.jpg,Vinb1n.jpg,40.0,70.0,1.0,37.0,10.0,1.0,1.417,2.668477387390865,-30.0,-0.7563588872645794,0.663292830228896,-1.4196517174934753
156,V1,d09142021,CDRCj,final_decisions,1.0,1.0,12.0,1.0,1.0,5.0,39.0,Pica1n.jpg,Kupb1n.jpg,57.0,61.0,1.0,5.0,39.0,1.0,0.908,0.2824052571716322,-4.0,0.04811041931505662,0.23739731498085334,-0.1892868956657967
157,V1,d09142021,CDRCj,final_decisions,1.0,0.0,13.0,0.0,1.0,30.0,69.0,Kraa1n.jpg,Picad1.jpg,38.0,40.0,1.0,30.0,69.0,1.0,0.894,0.2167765541793546,-2.0,-0.8510023350974778,-0.7563588872645794,-0.09464344783289835
158,V1,d09142021,CDRCj,final_decisions,1.0,0.0,14.0,1.0,0.0,31.0,68.0,Picac1.jpg,Mondb1.jpg,68.0,62.0,0.0,68.0,31.0,1.0,1.047,0.9340045225949585,6.0,0.5686493823959976,0.28471903889730255,0.28393034349869506
159,V1,d09142021,CDRCj,final_decisions,1.0,1.0,15.0,0.0,0.0,11.0,29.0,Clifa1.jpg,Klinb1.jpg,63.0,41.0,1.0,11.0,29.0,0.0,0.808,-0.18637119277320716,22.0,0.3320407628137517,-0.7090371633481303,1.0410779261618819
160,V1,d09142021,CDRCj,final_decisions,1.0,1.0,16.0,0.0,0.0,10.0,48.0,Vinb1n.jpg,Maca1n.jpg,70.0,67.0,1.0,10.0,48.0,0.0,1.038,0.8918146420999234,3.0,0.663292830228896,0.5213276584795484,0.14196517174934753
161,V1,d09142021,CDRCj,final_decisions,1.0,1.0,17.0,1.0,1.0,5.0,8.0,Pica1n.jpg,Picd1n.jpg,57.0,64.0,1.0,5.0,8.0,1.0,0.963,0.5402323046412936,-7.0,0.04811041931505662,0.3793624867302009,-0.3312520674151443
162,V1,d09142021,CDRCj,final_decisions,1.0,0.0,18.0,1.0,1.0,63.0,21.0,Lewia1.jpg,Kupkc1.jpg,68.0,67.0,1.0,63.0,21.0,1.0,0.968,0.5636711271385355,1.0,0.5686493823959976,0.5213276584795484,0.047321723916449177
163,V1,d09142021,CDRCj,final_decisions,1.0,0.0,19.0,1.0,1.0,68.0,53.0,Mondb1.jpg,Macc1n.jpg,62.0,63.0,1.0,68.0,53.0,1.0,0.948,0.4699158371495676,-1.0,0.28471903889730255,0.3320407628137517,-0.047321723916449177
164,V1,d09142021,CDRCj,final_decisions,1.0,0.0,20.0,0.0,1.0,47.0,69.0,Vina1n.jpg,Picad1.jpg,71.0,40.0,1.0,47.0,69.0,1.0,1.287,2.059068002462573,31.0,0.7106145541453451,-0.7563588872645794,1.4669734414099245
165,V1,d09142021,CDRCj,final_decisions,1.0,0.0,21.0,0.0,0.0,46.0,47.0,Lewb1n.jpg,Vina1n.jpg,59.0,71.0,0.0,47.0,46.0,1.0,1.0,0.7136795911208843,-12.0,0.142753867147955,0.7106145541453451,-0.5678606869973901
166,V1,d09142021,CDRCj,final_decisions,1.0,0.0,22.0,0.0,1.0,30.0,46.0,Kraa1n.jpg,Lewb1n.jpg,38.0,59.0,1.0,30.0,46.0,1.0,0.864,0.07614361919590264,-21.0,-0.8510023350974778,0.142753867147955,-0.9937562022454328
167,V1,d09142021,CDRCj,final_decisions,1.0,1.0,23.0,1.0,0.0,55.0,12.0,Clia1n.jpg,Klie1n.jpg,57.0,62.0,0.0,12.0,55.0,1.0,0.93,0.3855360761594969,-5.0,0.04811041931505662,0.28471903889730255,-0.23660861958224594
168,V1,d09142021,CDRCj,final_decisions,1.0,0.0,24.0,1.0,0.0,21.0,68.0,Kupkc1.jpg,Mondb1.jpg,67.0,62.0,0.0,68.0,21.0,1.0,0.846,-0.008236141794168537,5.0,0.5213276584795484,0.28471903889730255,0.23660861958224588
169,V1,d09142021,CDRCj,final_decisions,1.0,0.0,25.0,0.0,0.0,26.0,47.0,Klid1n.jpg,Vina1n.jpg,58.0,71.0,0.0,47.0,26.0,1.0,1.124,1.2949623890524857,-13.0,0.0954321432315058,0.7106145541453451,-0.6151824109138393
170,V1,d09142021,CDRCj,final_decisions,1.0,1.0,26.0,0.0,1.0,37.0,45.0,Deka1n.jpg,Lasc1n.jpg,40.0,67.0,1.0,37.0,45.0,1.0,0.868,0.09489467719369624,-27.0,-0.7563588872645794,0.5213276584795484,-1.2776865457441278
171,V1,d09142021,CDRCj,final_decisions,1.0,1.0,27.0,1.0,0.0,39.0,44.0,Kupb1n.jpg,Mackb1.jpg,61.0,42.0,0.0,44.0,39.0,1.0,1.236,1.8199920129907052,19.0,0.23739731498085334,-0.6617154394316811,0.8991127544125345
172,V1,d09142021,CDRCj,final_decisions,1.0,1.0,28.0,1.0,0.0,8.0,12.0,Picd1n.jpg,Klie1n.jpg,64.0,62.0,0.0,12.0,8.0,1.0,0.84,-0.03636272879085893,2.0,0.3793624867302009,0.28471903889730255,0.09464344783289835
173,V1,d09142021,CDRCj,final_decisions,1.0,0.0,29.0,1.0,1.0,42.0,31.0,Mackc1.jpg,Picac1.jpg,68.0,68.0,1.0,42.0,31.0,1.0,0.688,-0.748902932707015,0.0,0.5686493823959976,0.5686493823959976,0.0
174,V1,d09142021,CDRCj,final_decisions,1.0,1.0,30.0,1.0,1.0,5.0,55.0,Pica1n.jpg,Clia1n.jpg,57.0,57.0,1.0,5.0,55.0,1.0,0.604,-1.14267515066068,0.0,0.04811041931505662,0.04811041931505662,0.0
175,V1,d09142021,CDRCj,final_decisions,1.0,1.0,31.0,1.0,1.0,12.0,39.0,Klie1n.jpg,Kupb1n.jpg,62.0,61.0,1.0,12.0,39.0,1.0,0.69,-0.7395274037081182,1.0,0.28471903889730255,0.23739731498085334,0.047321723916449204
176,V1,d09142021,CDRCj,final_decisions,1.0,1.0,32.0,0.0,1.0,48.0,45.0,Maca1n.jpg,Lasc1n.jpg,67.0,67.0,1.0,48.0,45.0,1.0,1.0,0.7136795911208843,0.0,0.5213276584795484,0.5213276584795484,0.0
177,V1,d09142021,CDRCj,final_decisions,1.0,1.0,33.0,0.0,0.0,10.0,29.0,Vinb1n.jpg,Klinb1.jpg,70.0,41.0,1.0,10.0,29.0,0.0,1.199,1.646544726511115,29.0,0.663292830228896,-0.7090371633481303,1.3723299935770261
178,V1,d09142021,CDRCj,final_decisions,1.0,1.0,34.0,1.0,0.0,8.0,44.0,Picd1n.jpg,Mackb1.jpg,64.0,42.0,0.0,44.0,8.0,1.0,0.735,-0.5285780012329403,22.0,0.3793624867302009,-0.6617154394316811,1.0410779261618819
179,V1,d09142021,CDRCj,final_decisions,1.0,0.0,35.0,0.0,0.0,69.0,56.0,Picad1.jpg,Clib1n.jpg,40.0,61.0,0.0,56.0,69.0,1.0,0.893,0.2120887896799062,-21.0,-0.7563588872645794,0.23739731498085334,-0.9937562022454328
180,V1,d09142021,CDRCj,final_decisions,2.0,0.0,36.0,0.0,0.0,46.0,47.0,Lewb1n.jpg,Vina1n.jpg,59.0,71.0,0.0,47.0,46.0,1.0,0.857,0.04332926769976385,-12.0,0.142753867147955,0.7106145541453451,-0.5678606869973901
181,V1,d09142021,CDRCj,final_decisions,2.0,0.0,37.0,0.0,1.0,56.0,69.0,Clib1n.jpg,Picad1.jpg,61.0,40.0,1.0,56.0,69.0,1.0,0.968,0.5636711271385355,21.0,0.23739731498085334,-0.7563588872645794,0.9937562022454328
182,V1,d09142021,CDRCj,final_decisions,2.0,0.0,38.0,0.0,1.0,47.0,26.0,Vina1n.jpg,Klid1n.jpg,71.0,58.0,1.0,47.0,26.0,1.0,0.968,0.5636711271385355,13.0,0.7106145541453451,0.0954321432315058,0.6151824109138393
183,V1,d09142021,CDRCj,final_decisions,2.0,0.0,39.0,1.0,1.0,42.0,53.0,Mackc1.jpg,Macc1n.jpg,68.0,63.0,1.0,42.0,53.0,1.0,0.798,-0.23324883776769115,5.0,0.5686493823959976,0.3320407628137517,0.23660861958224588
184,V1,d09142021,CDRCj,final_decisions,2.0,0.0,40.0,1.0,0.0,31.0,42.0,Picac1.jpg,Mackc1.jpg,68.0,68.0,0.0,42.0,31.0,1.0,0.712,-0.6363965847202534,0.0,0.5686493823959976,0.5686493823959976,0.0
185,V1,d09142021,CDRCj,final_decisions,2.0,1.0,41.0,0.0,0.0,45.0,37.0,Lasc1n.jpg,Deka1n.jpg,67.0,40.0,0.0,37.0,45.0,1.0,0.774,-0.3457551857544527,27.0,0.5213276584795484,-0.7563588872645794,1.2776865457441278
186,V1,d09142021,CDRCj,final_decisions,2.0,0.0,42.0,0.0,0.0,69.0,47.0,Picad1.jpg,Vina1n.jpg,40.0,71.0,0.0,47.0,69.0,1.0,0.744,-0.48638812073790466,-31.0,-0.7563588872645794,0.7106145541453451,-1.4669734414099245
187,V1,d09142021,CDRCj,final_decisions,2.0,0.0,43.0,1.0,0.0,31.0,63.0,Picac1.jpg,Lewia1.jpg,68.0,68.0,0.0,63.0,31.0,1.0,0.706,-0.6645231717169439,0.0,0.5686493823959976,0.5686493823959976,0.0
188,V1,d09142021,CDRCj,final_decisions,2.0,0.0,44.0,0.0,1.0,56.0,26.0,Clib1n.jpg,Klid1n.jpg,61.0,58.0,1.0,56.0,26.0,1.0,0.91,0.291780786170529,3.0,0.23739731498085334,0.0954321432315058,0.14196517174934753
189,V1,d09142021,CDRCj,final_decisions,2.0,1.0,45.0,1.0,1.0,12.0,8.0,Klie1n.jpg,Picd1n.jpg,62.0,64.0,1.0,12.0,8.0,1.0,0.714,-0.6270210557213566,-2.0,0.28471903889730255,0.3793624867302009,-0.09464344783289835
190,V1,d09142021,CDRCj,final_decisions,2.0,1.0,46.0,1.0,0.0,55.0,5.0,Clia1n.jpg,Pica1n.jpg,57.0,57.0,0.0,5.0,55.0,1.0,0.928,0.37616054716060016,0.0,0.04811041931505662,0.04811041931505662,0.0
191,V1,d09142021,CDRCj,final_decisions,2.0,0.0,47.0,1.0,0.0,53.0,63.0,Macc1n.jpg,Lewia1.jpg,63.0,68.0,0.0,63.0,53.0,1.0,0.895,0.22146431867880298,-5.0,0.3320407628137517,0.5686493823959976,-0.23660861958224588
192,V1,d09142021,CDRCj,final_decisions,2.0,1.0,48.0,1.0,1.0,44.0,8.0,Mackb1.jpg,Picd1n.jpg,42.0,64.0,1.0,44.0,8.0,1.0,0.844,-0.017611670793065335,-22.0,-0.6617154394316811,0.3793624867302009,-1.0410779261618819
193,V1,d09142021,CDRCj,final_decisions,2.0,0.0,49.0,1.0,0.0,21.0,63.0,Kupkc1.jpg,Lewia1.jpg,67.0,68.0,0.0,63.0,21.0,1.0,0.665,-0.8567215161943277,-1.0,0.5213276584795484,0.5686493823959976,-0.047321723916449177
194,V1,d09142021,CDRCj,final_decisions,2.0,1.0,50.0,0.0,0.0,45.0,29.0,Lasc1n.jpg,Klinb1.jpg,67.0,41.0,1.0,45.0,29.0,0.0,1.274,1.9981270639697444,26.0,0.5213276584795484,-0.7090371633481303,1.2303648218276786
195,V1,d09142021,CDRCj,final_decisions,2.0,0.0,51.0,0.0,0.0,69.0,30.0,Picad1.jpg,Kraa1n.jpg,40.0,38.0,0.0,30.0,69.0,1.0,0.841,-0.03167496429141053,2.0,-0.7563588872645794,-0.8510023350974778,0.09464344783289835
196,V1,d09142021,CDRCj,final_decisions,2.0,1.0,52.0,0.0,0.0,11.0,37.0,Clifa1.jpg,Deka1n.jpg,63.0,40.0,1.0,11.0,37.0,0.0,0.783,-0.3035653052594171,23.0,0.3320407628137517,-0.7563588872645794,1.088399650078331
197,V1,d09142021,CDRCj,final_decisions,2.0,0.0,53.0,0.0,1.0,56.0,46.0,Clib1n.jpg,Lewb1n.jpg,61.0,59.0,1.0,56.0,46.0,1.0,0.886,0.1792744381837674,2.0,0.23739731498085334,0.142753867147955,0.09464344783289835
198,V1,d09142021,CDRCj,final_decisions,2.0,1.0,54.0,1.0,0.0,39.0,12.0,Kupb1n.jpg,Klie1n.jpg,61.0,62.0,0.0,12.0,39.0,1.0,0.773,-0.3504429502539011,-1.0,0.23739731498085334,0.28471903889730255,-0.047321723916449204
199,V1,d09142021,CDRCj,final_decisions,2.0,1.0,55.0,1.0,0.0,8.0,5.0,Picd1n.jpg,Pica1n.jpg,64.0,57.0,0.0,5.0,8.0,1.0,0.803,-0.20981001527044915,7.0,0.3793624867302009,0.04811041931505662,0.3312520674151443
200,V1,d09142021,CDRCj,final_decisions,2.0,1.0,56.0,0.0,1.0,48.0,11.0,Maca1n.jpg,Clifa1.jpg,67.0,63.0,0.0,11.0,48.0,0.0,0.935,0.4089748986567389,4.0,0.5213276584795484,0.3320407628137517,0.1892868956657967
201,V1,d09142021,CDRCj,final_decisions,2.0,0.0,57.0,0.0,1.0,30.0,26.0,Kraa1n.jpg,Klid1n.jpg,38.0,58.0,1.0,30.0,26.0,1.0,0.87,0.10427020619259303,-20.0,-0.8510023350974778,0.0954321432315058,-0.9464344783289836
202,V1,d09142021,CDRCj,final_decisions,2.0,0.0,58.0,1.0,1.0,42.0,21.0,Mackc1.jpg,Kupkc1.jpg,68.0,67.0,1.0,42.0,21.0,1.0,0.91,0.291780786170529,1.0,0.5686493823959976,0.5213276584795484,0.047321723916449177
203,V1,d09142021,CDRCj,final_decisions,2.0,0.0,59.0,1.0,1.0,68.0,53.0,Mondb1.jpg,Macc1n.jpg,62.0,63.0,1.0,68.0,53.0,1.0,0.742,-0.4957636497368015,-1.0,0.28471903889730255,0.3320407628137517,-0.047321723916449177
204,V1,d09142021,CDRCj,final_decisions,2.0,1.0,60.0,1.0,1.0,5.0,39.0,Pica1n.jpg,Kupb1n.jpg,57.0,61.0,1.0,5.0,39.0,1.0,1.004,0.732430649118678,-4.0,0.04811041931505662,0.23739731498085334,-0.1892868956657967
205,V1,d09142021,CDRCj,final_decisions,2.0,0.0,61.0,0.0,0.0,46.0,30.0,Lewb1n.jpg,Kraa1n.jpg,59.0,38.0,0.0,30.0,46.0,1.0,0.934,0.4042871341572905,21.0,0.142753867147955,-0.8510023350974778,0.9937562022454328
206,V1,d09142021,CDRCj,final_decisions,2.0,1.0,62.0,1.0,1.0,12.0,55.0,Klie1n.jpg,Clia1n.jpg,62.0,57.0,1.0,12.0,55.0,1.0,0.877,0.13708455768873182,5.0,0.28471903889730255,0.04811041931505662,0.23660861958224594
207,V1,d09142021,CDRCj,final_decisions,2.0,1.0,63.0,1.0,0.0,39.0,44.0,Kupb1n.jpg,Mackb1.jpg,61.0,42.0,0.0,44.0,39.0,1.0,0.672,-0.8239071646981888,19.0,0.23739731498085334,-0.6617154394316811,0.8991127544125345
208,V1,d09142021,CDRCj,final_decisions,2.0,1.0,64.0,0.0,1.0,29.0,10.0,Klinb1.jpg,Vinb1n.jpg,41.0,70.0,0.0,10.0,29.0,0.0,0.863,0.07145585469645424,-29.0,-0.7090371633481303,0.663292830228896,-1.3723299935770261
209,V1,d09142021,CDRCj,final_decisions,2.0,1.0,65.0,0.0,1.0,29.0,11.0,Klinb1.jpg,Clifa1.jpg,41.0,63.0,0.0,11.0,29.0,0.0,0.714,-0.6270210557213566,-22.0,-0.7090371633481303,0.3320407628137517,-1.0410779261618819
210,V1,d09142021,CDRCj,final_decisions,2.0,1.0,66.0,0.0,1.0,48.0,45.0,Maca1n.jpg,Lasc1n.jpg,67.0,67.0,1.0,48.0,45.0,1.0,0.79,-0.27075095376327835,0.0,0.5213276584795484,0.5213276584795484,0.0
211,V1,d09142021,CDRCj,final_decisions,2.0,0.0,67.0,1.0,1.0,68.0,31.0,Mondb1.jpg,Picac1.jpg,62.0,68.0,1.0,68.0,31.0,1.0,1.078,1.0793252220778593,-6.0,0.28471903889730255,0.5686493823959976,-0.28393034349869506
212,V1,d09142021,CDRCj,final_decisions,2.0,1.0,68.0,0.0,1.0,37.0,10.0,Deka1n.jpg,Vinb1n.jpg,40.0,70.0,1.0,37.0,10.0,1.0,1.097,1.1683927475673785,-30.0,-0.7563588872645794,0.663292830228896,-1.4196517174934753
213,V1,d09142021,CDRCj,final_decisions,2.0,1.0,69.0,1.0,1.0,44.0,55.0,Mackb1.jpg,Clia1n.jpg,42.0,57.0,1.0,44.0,55.0,1.0,0.747,-0.4723248272395595,-15.0,-0.6617154394316811,0.04811041931505662,-0.7098258587467378
214,V1,d09142021,CDRCj,final_decisions,2.0,1.0,70.0,0.0,0.0,10.0,48.0,Vinb1n.jpg,Maca1n.jpg,70.0,67.0,0.0,48.0,10.0,1.0,0.875,0.12770902868983502,3.0,0.663292830228896,0.5213276584795484,0.14196517174934753
215,V1,d09142021,CDRCj,final_decisions,2.0,0.0,71.0,1.0,1.0,68.0,21.0,Mondb1.jpg,Kupkc1.jpg,62.0,67.0,1.0,68.0,21.0,1.0,0.701,-0.6879619942141858,-5.0,0.28471903889730255,0.5213276584795484,-0.23660861958224588
216,V1,d09142021,CDRCj,final_decisions,3.0,1.0,72.0,1.0,0.0,8.0,5.0,Picd1n.jpg,Pica1n.jpg,64.0,57.0,0.0,5.0,8.0,1.0,0.8,-0.22387330876879435,7.0,0.3793624867302009,0.04811041931505662,0.3312520674151443
217,V1,d09142021,CDRCj,final_decisions,3.0,0.0,73.0,0.0,1.0,47.0,26.0,Vina1n.jpg,Klid1n.jpg,71.0,58.0,1.0,47.0,26.0,1.0,0.661,-0.8754725741921212,13.0,0.7106145541453451,0.0954321432315058,0.6151824109138393
218,V1,d09142021,CDRCj,final_decisions,3.0,0.0,74.0,0.0,1.0,47.0,69.0,Vina1n.jpg,Picad1.jpg,71.0,40.0,0.0,69.0,47.0,0.0,0.62,-1.0676709186695055,31.0,0.7106145541453451,-0.7563588872645794,1.4669734414099245
219,V1,d09142021,CDRCj,final_decisions,3.0,1.0,75.0,0.0,1.0,29.0,10.0,Klinb1.jpg,Vinb1n.jpg,41.0,70.0,0.0,10.0,29.0,0.0,1.361,2.4059625754217544,-29.0,-0.7090371633481303,0.663292830228896,-1.3723299935770261
220,V1,d09142021,CDRCj,final_decisions,3.0,1.0,76.0,1.0,1.0,5.0,55.0,Pica1n.jpg,Clia1n.jpg,57.0,57.0,1.0,5.0,55.0,1.0,0.719,-0.6035822332241146,0.0,0.04811041931505662,0.04811041931505662,0.0
221,V1,d09142021,CDRCj,final_decisions,3.0,0.0,77.0,1.0,1.0,68.0,31.0,Mondb1.jpg,Picac1.jpg,62.0,68.0,1.0,68.0,31.0,1.0,0.621,-1.0629831541700572,-6.0,0.28471903889730255,0.5686493823959976,-0.28393034349869506
222,V1,d09142021,CDRCj,final_decisions,3.0,0.0,78.0,1.0,0.0,31.0,63.0,Picac1.jpg,Lewia1.jpg,68.0,68.0,0.0,63.0,31.0,1.0,0.792,-0.2613754247643815,0.0,0.5686493823959976,0.5686493823959976,0.0
223,V1,d09142021,CDRCj,final_decisions,3.0,1.0,79.0,1.0,1.0,44.0,39.0,Mackb1.jpg,Kupb1n.jpg,42.0,61.0,1.0,44.0,39.0,1.0,0.62,-1.0676709186695055,-19.0,-0.6617154394316811,0.23739731498085334,-0.8991127544125345
224,V1,d09142021,CDRCj,final_decisions,3.0,0.0,80.0,1.0,1.0,42.0,31.0,Mackc1.jpg,Picac1.jpg,68.0,68.0,1.0,42.0,31.0,1.0,0.583,-1.2411182051490963,0.0,0.5686493823959976,0.5686493823959976,0.0
225,V1,d09142021,CDRCj,final_decisions,3.0,1.0,81.0,1.0,1.0,5.0,39.0,Pica1n.jpg,Kupb1n.jpg,57.0,61.0,1.0,5.0,39.0,1.0,0.64,-0.9739156286805376,-4.0,0.04811041931505662,0.23739731498085334,-0.1892868956657967
226,V1,d09142021,CDRCj,final_decisions,3.0,0.0,82.0,0.0,1.0,30.0,69.0,Kraa1n.jpg,Picad1.jpg,38.0,40.0,1.0,30.0,69.0,1.0,0.668,-0.8426582226959825,-2.0,-0.8510023350974778,-0.7563588872645794,-0.09464344783289835
227,V1,d09142021,CDRCj,final_decisions,3.0,1.0,83.0,0.0,1.0,29.0,11.0,Klinb1.jpg,Clifa1.jpg,41.0,63.0,0.0,11.0,29.0,0.0,0.627,-1.0348565671733667,-22.0,-0.7090371633481303,0.3320407628137517,-1.0410779261618819
228,V1,d09142021,CDRCj,final_decisions,3.0,0.0,84.0,1.0,1.0,68.0,21.0,Mondb1.jpg,Kupkc1.jpg,62.0,67.0,1.0,68.0,21.0,1.0,0.61,-1.1145485636639896,-5.0,0.28471903889730255,0.5213276584795484,-0.23660861958224588
229,V1,d09142021,CDRCj,final_decisions,3.0,0.0,85.0,0.0,0.0,46.0,56.0,Lewb1n.jpg,Clib1n.jpg,59.0,61.0,0.0,56.0,46.0,1.0,0.622,-1.0582953896706087,-2.0,0.142753867147955,0.23739731498085334,-0.09464344783289835
230,V1,d09142021,CDRCj,final_decisions,3.0,1.0,86.0,0.0,1.0,48.0,11.0,Maca1n.jpg,Clifa1.jpg,67.0,63.0,1.0,48.0,11.0,1.0,0.646,-0.9457890416838473,4.0,0.5213276584795484,0.3320407628137517,0.1892868956657967
231,V1,d09142021,CDRCj,final_decisions,3.0,1.0,87.0,0.0,0.0,45.0,37.0,Lasc1n.jpg,Deka1n.jpg,67.0,40.0,0.0,37.0,45.0,1.0,0.71,-0.6457721137191502,27.0,0.5213276584795484,-0.7563588872645794,1.2776865457441278
232,V1,d09142021,CDRCj,final_decisions,3.0,0.0,88.0,1.0,0.0,53.0,63.0,Macc1n.jpg,Lewia1.jpg,63.0,68.0,0.0,63.0,53.0,1.0,0.657,-0.8942236321899149,-5.0,0.3320407628137517,0.5686493823959976,-0.23660861958224588
233,V1,d09142021,CDRCj,final_decisions,3.0,1.0,89.0,1.0,1.0,12.0,55.0,Klie1n.jpg,Clia1n.jpg,62.0,57.0,1.0,12.0,55.0,1.0,0.682,-0.7770295197037048,5.0,0.28471903889730255,0.04811041931505662,0.23660861958224594
234,V1,d09142021,CDRCj,final_decisions,3.0,1.0,90.0,0.0,1.0,37.0,10.0,Deka1n.jpg,Vinb1n.jpg,40.0,70.0,1.0,37.0,10.0,1.0,0.767,-0.3785695372505915,-30.0,-0.7563588872645794,0.663292830228896,-1.4196517174934753
235,V1,d09142021,CDRCj,final_decisions,3.0,0.0,91.0,1.0,0.0,53.0,68.0,Macc1n.jpg,Mondb1.jpg,63.0,62.0,0.0,68.0,53.0,1.0,0.69,-0.7395274037081182,1.0,0.3320407628137517,0.28471903889730255,0.047321723916449177
236,V1,d09142021,CDRCj,final_decisions,3.0,1.0,92.0,0.0,0.0,11.0,37.0,Clifa1.jpg,Deka1n.jpg,63.0,40.0,1.0,11.0,37.0,0.0,0.78,-0.31762859875776234,23.0,0.3320407628137517,-0.7563588872645794,1.088399650078331
237,V1,d09142021,CDRCj,final_decisions,3.0,0.0,93.0,1.0,1.0,63.0,21.0,Lewia1.jpg,Kupkc1.jpg,68.0,67.0,1.0,63.0,21.0,1.0,1.12,1.276211331054692,1.0,0.5686493823959976,0.5213276584795484,0.047321723916449177
238,V1,d09142021,CDRCj,final_decisions,3.0,1.0,94.0,1.0,0.0,39.0,12.0,Kupb1n.jpg,Klie1n.jpg,61.0,62.0,0.0,12.0,39.0,1.0,1.066,1.0230720480844786,-1.0,0.23739731498085334,0.28471903889730255,-0.047321723916449204
239,V1,d09142021,CDRCj,final_decisions,3.0,1.0,95.0,0.0,0.0,10.0,48.0,Vinb1n.jpg,Maca1n.jpg,70.0,67.0,0.0,48.0,10.0,1.0,1.222,1.7543633099984277,3.0,0.663292830228896,0.5213276584795484,0.14196517174934753
240,V1,d09142021,CDRCj,final_decisions,3.0,0.0,96.0,0.0,0.0,46.0,47.0,Lewb1n.jpg,Vina1n.jpg,59.0,71.0,0.0,47.0,46.0,1.0,0.971,0.5777344206368807,-12.0,0.142753867147955,0.7106145541453451,-0.5678606869973901
241,V1,d09142021,CDRCj,final_decisions,3.0,1.0,97.0,1.0,0.0,55.0,44.0,Clia1n.jpg,Mackb1.jpg,57.0,42.0,0.0,44.0,55.0,1.0,0.985,0.6433631236291584,15.0,0.04811041931505662,-0.6617154394316811,0.7098258587467378
242,V1,d09142021,CDRCj,final_decisions,3.0,0.0,98.0,0.0,1.0,56.0,69.0,Clib1n.jpg,Picad1.jpg,61.0,40.0,1.0,56.0,69.0,1.0,0.748,-0.4676370627401111,21.0,0.23739731498085334,-0.7563588872645794,0.9937562022454328
243,V1,d09142021,CDRCj,final_decisions,3.0,0.0,99.0,0.0,1.0,56.0,26.0,Clib1n.jpg,Klid1n.jpg,61.0,58.0,1.0,56.0,26.0,1.0,0.776,-0.3363796567555559,3.0,0.23739731498085334,0.0954321432315058,0.14196517174934753
244,V1,d09142021,CDRCj,final_decisions,3.0,1.0,100.0,1.0,0.0,8.0,44.0,Picd1n.jpg,Mackb1.jpg,64.0,42.0,0.0,44.0,8.0,1.0,0.695,-0.7160885812108762,22.0,0.3793624867302009,-0.6617154394316811,1.0410779261618819
245,V1,d09142021,CDRCj,final_decisions,3.0,1.0,101.0,0.0,0.0,45.0,29.0,Lasc1n.jpg,Klinb1.jpg,67.0,41.0,1.0,45.0,29.0,0.0,0.992,0.6761774751252971,26.0,0.5213276584795484,-0.7090371633481303,1.2303648218276786
246,V1,d09142021,CDRCj,final_decisions,3.0,0.0,102.0,1.0,1.0,42.0,21.0,Mackc1.jpg,Kupkc1.jpg,68.0,67.0,1.0,42.0,21.0,1.0,0.941,0.4371014856534288,1.0,0.5686493823959976,0.5213276584795484,0.047321723916449177
247,V1,d09142021,CDRCj,final_decisions,3.0,1.0,103.0,1.0,1.0,12.0,8.0,Klie1n.jpg,Picd1n.jpg,62.0,64.0,1.0,12.0,8.0,1.0,0.872,0.11364573519148982,-2.0,0.28471903889730255,0.3793624867302009,-0.09464344783289835
248,V1,d09142021,CDRCj,final_decisions,3.0,0.0,104.0,0.0,0.0,26.0,30.0,Klid1n.jpg,Kraa1n.jpg,58.0,38.0,0.0,30.0,26.0,1.0,0.848,0.0011393872047282593,20.0,0.0954321432315058,-0.8510023350974778,0.9464344783289836
249,V1,d09142021,CDRCj,final_decisions,3.0,0.0,105.0,0.0,0.0,46.0,30.0,Lewb1n.jpg,Kraa1n.jpg,59.0,38.0,0.0,30.0,46.0,1.0,0.687,-0.7535906972064629,21.0,0.142753867147955,-0.8510023350974778,0.9937562022454328
250,V1,d09142021,CDRCj,final_decisions,3.0,0.0,106.0,1.0,0.0,53.0,42.0,Macc1n.jpg,Mackc1.jpg,63.0,68.0,0.0,42.0,53.0,1.0,0.767,-0.3785695372505915,-5.0,0.3320407628137517,0.5686493823959976,-0.23660861958224588
251,V1,d09142021,CDRCj,final_decisions,3.0,1.0,107.0,0.0,1.0,48.0,45.0,Maca1n.jpg,Lasc1n.jpg,67.0,67.0,1.0,48.0,45.0,1.0,0.754,-0.43951047574342067,0.0,0.5213276584795484,0.5213276584795484,0.0
252,V1,d09142021,CDRCj,final_decisions,4.0,0.0,108.0,0.0,1.0,47.0,69.0,Vina1n.jpg,Picad1.jpg,71.0,40.0,1.0,47.0,69.0,1.0,0.808,-0.18637119277320716,31.0,0.7106145541453451,-0.7563588872645794,1.4669734414099245
253,V1,d09142021,CDRCj,final_decisions,4.0,0.0,109.0,0.0,0.0,69.0,30.0,Picad1.jpg,Kraa1n.jpg,40.0,38.0,0.0,30.0,69.0,1.0,0.744,-0.48638812073790466,2.0,-0.7563588872645794,-0.8510023350974778,0.09464344783289835
254,V1,d09142021,CDRCj,final_decisions,4.0,1.0,110.0,1.0,0.0,39.0,44.0,Kupb1n.jpg,Mackb1.jpg,61.0,42.0,0.0,44.0,39.0,1.0,0.728,-0.5613923527290791,19.0,0.23739731498085334,-0.6617154394316811,0.8991127544125345
255,V1,d09142021,CDRCj,final_decisions,4.0,1.0,111.0,0.0,1.0,48.0,11.0,Maca1n.jpg,Clifa1.jpg,67.0,63.0,1.0,48.0,11.0,1.0,0.709,-0.6504598782185986,4.0,0.5213276584795484,0.3320407628137517,0.1892868956657967
256,V1,d09142021,CDRCj,final_decisions,4.0,1.0,112.0,0.0,0.0,10.0,37.0,Vinb1n.jpg,Deka1n.jpg,70.0,40.0,0.0,37.0,10.0,1.0,0.723,-0.584831175226321,30.0,0.663292830228896,-0.7563588872645794,1.4196517174934753
257,V1,d09142021,CDRCj,final_decisions,4.0,0.0,113.0,1.0,0.0,31.0,63.0,Picac1.jpg,Lewia1.jpg,68.0,68.0,0.0,63.0,31.0,1.0,0.744,-0.48638812073790466,0.0,0.5686493823959976,0.5686493823959976,0.0
258,V1,d09142021,CDRCj,final_decisions,4.0,1.0,114.0,0.0,1.0,37.0,11.0,Deka1n.jpg,Clifa1.jpg,40.0,63.0,1.0,37.0,11.0,1.0,0.951,0.48397913064791276,-23.0,-0.7563588872645794,0.3320407628137517,-1.088399650078331
259,V1,d09142021,CDRCj,final_decisions,4.0,1.0,115.0,1.0,1.0,5.0,8.0,Pica1n.jpg,Picd1n.jpg,57.0,64.0,1.0,5.0,8.0,1.0,0.744,-0.48638812073790466,-7.0,0.04811041931505662,0.3793624867302009,-0.3312520674151443
260,V1,d09142021,CDRCj,final_decisions,4.0,0.0,116.0,0.0,0.0,26.0,47.0,Klid1n.jpg,Vina1n.jpg,58.0,71.0,0.0,47.0,26.0,1.0,0.789,-0.27543871826272676,-13.0,0.0954321432315058,0.7106145541453451,-0.6151824109138393
261,V1,d09142021,CDRCj,final_decisions,4.0,1.0,117.0,0.0,1.0,37.0,45.0,Deka1n.jpg,Lasc1n.jpg,40.0,67.0,1.0,37.0,45.0,1.0,0.645,-0.9504768061832956,-27.0,-0.7563588872645794,0.5213276584795484,-1.2776865457441278
262,V1,d09142021,CDRCj,final_decisions,4.0,1.0,118.0,1.0,1.0,5.0,55.0,Pica1n.jpg,Clia1n.jpg,57.0,57.0,1.0,5.0,55.0,1.0,0.52,-1.536447368614345,0.0,0.04811041931505662,0.04811041931505662,0.0
263,V1,d09142021,CDRCj,final_decisions,4.0,0.0,119.0,1.0,1.0,63.0,53.0,Lewia1.jpg,Macc1n.jpg,68.0,63.0,1.0,63.0,53.0,1.0,0.581,-1.2504937341479931,5.0,0.5686493823959976,0.3320407628137517,0.23660861958224588
264,V1,d09142021,CDRCj,final_decisions,4.0,1.0,120.0,1.0,1.0,44.0,55.0,Mackb1.jpg,Clia1n.jpg,42.0,57.0,1.0,44.0,55.0,1.0,0.679,-0.79109281320205,-15.0,-0.6617154394316811,0.04811041931505662,-0.7098258587467378
265,V1,d09142021,CDRCj,final_decisions,4.0,1.0,121.0,0.0,0.0,10.0,48.0,Vinb1n.jpg,Maca1n.jpg,70.0,67.0,0.0,48.0,10.0,1.0,0.9,0.24490314117604498,3.0,0.663292830228896,0.5213276584795484,0.14196517174934753
266,V1,d09142021,CDRCj,final_decisions,4.0,1.0,122.0,1.0,1.0,5.0,39.0,Pica1n.jpg,Kupb1n.jpg,57.0,61.0,1.0,5.0,39.0,1.0,0.553,-1.3817511401325477,-4.0,0.04811041931505662,0.23739731498085334,-0.1892868956657967
267,V1,d09142021,CDRCj,final_decisions,4.0,0.0,123.0,1.0,1.0,63.0,21.0,Lewia1.jpg,Kupkc1.jpg,68.0,67.0,1.0,63.0,21.0,1.0,0.455,-1.8411520610784906,1.0,0.5686493823959976,0.5213276584795484,0.047321723916449177
268,V1,d09142021,CDRCj,final_decisions,4.0,0.0,124.0,1.0,0.0,53.0,68.0,Macc1n.jpg,Mondb1.jpg,63.0,62.0,0.0,68.0,53.0,1.0,0.71,-0.6457721137191502,1.0,0.3320407628137517,0.28471903889730255,0.047321723916449177
269,V1,d09142021,CDRCj,final_decisions,4.0,1.0,125.0,1.0,1.0,12.0,55.0,Klie1n.jpg,Clia1n.jpg,62.0,57.0,1.0,12.0,55.0,1.0,0.679,-0.79109281320205,5.0,0.28471903889730255,0.04811041931505662,0.23660861958224594
270,V1,d09142021,CDRCj,final_decisions,4.0,1.0,126.0,0.0,0.0,45.0,29.0,Lasc1n.jpg,Klinb1.jpg,67.0,41.0,0.0,29.0,45.0,1.0,0.932,0.39491160515839374,26.0,0.5213276584795484,-0.7090371633481303,1.2303648218276786
271,V1,d09142021,CDRCj,final_decisions,4.0,1.0,127.0,1.0,0.0,39.0,12.0,Kupb1n.jpg,Klie1n.jpg,61.0,62.0,0.0,12.0,39.0,1.0,0.906,0.27302972817273535,-1.0,0.23739731498085334,0.28471903889730255,-0.047321723916449204
272,V1,d09142021,CDRCj,final_decisions,4.0,0.0,128.0,1.0,1.0,42.0,21.0,Mackc1.jpg,Kupkc1.jpg,68.0,67.0,1.0,42.0,21.0,1.0,0.478,-1.7333334775911777,1.0,0.5686493823959976,0.5213276584795484,0.047321723916449177
273,V1,d09142021,CDRCj,final_decisions,4.0,0.0,129.0,1.0,1.0,42.0,31.0,Mackc1.jpg,Picac1.jpg,68.0,68.0,1.0,42.0,31.0,1.0,0.486,-1.6958313615955904,0.0,0.5686493823959976,0.5686493823959976,0.0
274,V1,d09142021,CDRCj,final_decisions,4.0,1.0,130.0,0.0,0.0,11.0,29.0,Clifa1.jpg,Klinb1.jpg,63.0,41.0,1.0,11.0,29.0,0.0,0.615,-1.0911097411667476,22.0,0.3320407628137517,-0.7090371633481303,1.0410779261618819
275,V1,d09142021,CDRCj,final_decisions,4.0,0.0,131.0,0.0,1.0,30.0,26.0,Kraa1n.jpg,Klid1n.jpg,38.0,58.0,1.0,30.0,26.0,1.0,0.58,-1.2551814986474414,-20.0,-0.8510023350974778,0.0954321432315058,-0.9464344783289836
276,V1,d09142021,CDRCj,final_decisions,4.0,1.0,132.0,1.0,0.0,8.0,44.0,Picd1n.jpg,Mackb1.jpg,64.0,42.0,0.0,44.0,8.0,1.0,0.608,-1.1239240926628864,22.0,0.3793624867302009,-0.6617154394316811,1.0410779261618819
277,V1,d09142021,CDRCj,final_decisions,4.0,0.0,133.0,0.0,1.0,56.0,69.0,Clib1n.jpg,Picad1.jpg,61.0,40.0,1.0,56.0,69.0,1.0,0.647,-0.9411012771843988,21.0,0.23739731498085334,-0.7563588872645794,0.9937562022454328
278,V1,d09142021,CDRCj,final_decisions,4.0,0.0,134.0,0.0,0.0,46.0,56.0,Lewb1n.jpg,Clib1n.jpg,59.0,61.0,0.0,56.0,46.0,1.0,0.639,-0.978603393179986,-2.0,0.142753867147955,0.23739731498085334,-0.09464344783289835
279,V1,d09142021,CDRCj,final_decisions,4.0,1.0,135.0,0.0,1.0,48.0,45.0,Maca1n.jpg,Lasc1n.jpg,67.0,67.0,1.0,48.0,45.0,1.0,0.758,-0.4207594177456271,0.0,0.5213276584795484,0.5213276584795484,0.0
280,V1,d09142021,CDRCj,final_decisions,4.0,0.0,136.0,1.0,0.0,31.0,68.0,Picac1.jpg,Mondb1.jpg,68.0,62.0,0.0,68.0,31.0,1.0,0.7,-0.6926497587136342,6.0,0.5686493823959976,0.28471903889730255,0.28393034349869506
281,V1,d09142021,CDRCj,final_decisions,4.0,0.0,137.0,1.0,1.0,68.0,21.0,Mondb1.jpg,Kupkc1.jpg,62.0,67.0,1.0,68.0,21.0,1.0,0.636,-0.9926666866783311,-5.0,0.28471903889730255,0.5213276584795484,-0.23660861958224588
282,V1,d09142021,CDRCj,final_decisions,4.0,1.0,138.0,0.0,1.0,29.0,10.0,Klinb1.jpg,Vinb1n.jpg,41.0,70.0,0.0,10.0,29.0,0.0,1.088,1.1262028670723434,-29.0,-0.7090371633481303,0.663292830228896,-1.3723299935770261
283,V1,d09142021,CDRCj,final_decisions,4.0,0.0,139.0,1.0,0.0,53.0,42.0,Macc1n.jpg,Mackc1.jpg,63.0,68.0,0.0,42.0,53.0,1.0,0.793,-0.2566876602649331,-5.0,0.3320407628137517,0.5686493823959976,-0.23660861958224588
284,V1,d09142021,CDRCj,final_decisions,4.0,0.0,140.0,0.0,1.0,56.0,26.0,Clib1n.jpg,Klid1n.jpg,61.0,58.0,0.0,26.0,56.0,0.0,1.225,1.7684266034967735,3.0,0.23739731498085334,0.0954321432315058,0.14196517174934753
285,V1,d09142021,CDRCj,final_decisions,4.0,0.0,141.0,0.0,1.0,47.0,46.0,Vina1n.jpg,Lewb1n.jpg,71.0,59.0,1.0,47.0,46.0,1.0,0.755,-0.43482271124397226,12.0,0.7106145541453451,0.142753867147955,0.5678606869973901
286,V1,d09142021,CDRCj,final_decisions,4.0,0.0,142.0,0.0,0.0,46.0,30.0,Lewb1n.jpg,Kraa1n.jpg,59.0,38.0,0.0,30.0,46.0,1.0,0.571,-1.297371379142477,21.0,0.142753867147955,-0.8510023350974778,0.9937562022454328
287,V1,d09142021,CDRCj,final_decisions,4.0,1.0,143.0,1.0,0.0,8.0,12.0,Picd1n.jpg,Klie1n.jpg,64.0,62.0,0.0,12.0,8.0,1.0,0.655,-0.9035991611888116,2.0,0.3793624867302009,0.28471903889730255,0.09464344783289835
288,V1,d09172021,S5lJ6,final_decisions,1.0,0.0,0.0,1.0,0.0,50.0,12.0,Klic1n.jpg,Klie1n.jpg,32.0,59.0,1.0,50.0,12.0,0.0,1.485,1.8921322909859042,-27.0,-0.651622183354138,0.7211059532306517,-1.3727281365847896
289,V1,d09172021,S5lJ6,final_decisions,1.0,0.0,1.0,0.0,0.0,15.0,55.0,Lassc1.jpg,Clia1n.jpg,35.0,56.0,0.0,55.0,15.0,1.0,0.712,-0.5193421341266939,-21.0,-0.49909683484471695,0.5685806047212306,-1.0676774395659476
290,V1,d09172021,S5lJ6,final_decisions,1.0,1.0,2.0,0.0,0.0,36.0,4.0,Gustb1.jpg,Krasb1.jpg,43.0,32.0,1.0,36.0,4.0,0.0,1.338,1.4335465982413351,11.0,-0.09236257215292738,-0.651622183354138,0.5592596112012106
291,V1,d09172021,S5lJ6,final_decisions,1.0,1.0,3.0,0.0,1.0,33.0,37.0,Kline1.jpg,Deka1n.jpg,55.0,31.0,1.0,33.0,37.0,1.0,0.985,0.33231700954179144,24.0,0.517738821884757,-0.7024639661906117,1.2202027880753685
292,V1,d09172021,S5lJ6,final_decisions,1.0,1.0,4.0,0.0,1.0,18.0,37.0,Krab1n.jpg,Deka1n.jpg,44.0,31.0,1.0,18.0,37.0,1.0,0.986,0.3354366401046797,13.0,-0.041520789316453685,-0.7024639661906117,0.660943176874158
293,V1,d09172021,S5lJ6,final_decisions,1.0,1.0,5.0,1.0,0.0,66.0,6.0,Vinca1.jpg,Gusc1n.jpg,44.0,53.0,1.0,66.0,6.0,0.0,0.657,-0.6909218150855462,-9.0,-0.041520789316453685,0.41605525621180955,-0.45757604552826325
294,V1,d09172021,S5lJ6,final_decisions,1.0,1.0,6.0,0.0,0.0,37.0,4.0,Deka1n.jpg,Krasb1.jpg,31.0,32.0,1.0,37.0,4.0,0.0,1.014,0.42278629586555005,-1.0,-0.7024639661906117,-0.651622183354138,-0.05084178283647367
295,V1,d09172021,S5lJ6,final_decisions,1.0,1.0,7.0,1.0,1.0,6.0,63.0,Gusc1n.jpg,Lewia1.jpg,53.0,37.0,1.0,6.0,63.0,1.0,0.74,-0.4319924783658236,16.0,0.41605525621180955,-0.39741326917176956,0.8134685253835792
296,V1,d09172021,S5lJ6,final_decisions,1.0,1.0,8.0,1.0,1.0,53.0,43.0,Macc1n.jpg,Clifb1.jpg,38.0,35.0,1.0,53.0,43.0,1.0,0.731,-0.46006915343181765,3.0,-0.34657148633529583,-0.49909683484471695,0.15252534850942112
297,V1,d09172021,S5lJ6,final_decisions,1.0,1.0,9.0,0.0,0.0,36.0,18.0,Gustb1.jpg,Krab1n.jpg,43.0,44.0,1.0,36.0,18.0,0.0,0.868,-0.03267976631613081,-1.0,-0.09236257215292738,-0.041520789316453685,-0.0508417828364737
298,V1,d09172021,S5lJ6,final_decisions,1.0,0.0,10.0,1.0,0.0,64.0,38.0,Vincb1.jpg,Krasa1.jpg,40.0,36.0,0.0,38.0,64.0,1.0,1.707,2.58469027594709,4.0,-0.24488792066234846,-0.4482550520082432,0.20336713134589476
299,V1,d09172021,S5lJ6,final_decisions,1.0,1.0,11.0,1.0,0.0,66.0,53.0,Vinca1.jpg,Macc1n.jpg,44.0,38.0,0.0,53.0,66.0,1.0,1.321,1.380512878672235,6.0,-0.041520789316453685,-0.34657148633529583,0.30505069701884213
300,V1,d09172021,S5lJ6,final_decisions,1.0,0.0,12.0,0.0,1.0,7.0,15.0,Macb1n.jpg,Lassc1.jpg,46.0,35.0,1.0,7.0,15.0,1.0,1.854,3.0432759686916593,11.0,0.060162776356493704,-0.49909683484471695,0.5592596112012107
301,V1,d09172021,S5lJ6,final_decisions,1.0,0.0,13.0,0.0,1.0,51.0,32.0,Lewic1.jpg,Kupkb1.jpg,50.0,31.0,0.0,32.0,51.0,0.0,1.545,2.079310124759197,19.0,0.2635299077023885,-0.7024639661906117,0.9659938738930002
302,V1,d09172021,S5lJ6,final_decisions,1.0,1.0,14.0,1.0,1.0,57.0,63.0,Lassa1.jpg,Lewia1.jpg,58.0,37.0,1.0,57.0,63.0,1.0,0.836,-0.1325079443285541,21.0,0.6702641703941781,-0.39741326917176956,1.0676774395659476
303,V1,d09172021,S5lJ6,final_decisions,1.0,1.0,15.0,1.0,1.0,57.0,66.0,Lassa1.jpg,Vinca1.jpg,58.0,44.0,1.0,57.0,66.0,1.0,0.474,-1.2618142080940915,14.0,0.6702641703941781,-0.041520789316453685,0.7117849597106317
304,V1,d09172021,S5lJ6,final_decisions,1.0,0.0,16.0,1.0,1.0,12.0,23.0,Klie1n.jpg,Rohlb1.jpg,59.0,33.0,1.0,12.0,23.0,1.0,1.083,0.6380408047048374,26.0,0.7211059532306517,-0.6007804005176643,1.321886353748316
305,V1,d09172021,S5lJ6,final_decisions,1.0,1.0,17.0,0.0,1.0,18.0,19.0,Krab1n.jpg,Picc1n.jpg,44.0,33.0,1.0,18.0,19.0,1.0,0.965,0.2699243982840269,11.0,-0.041520789316453685,-0.6007804005176643,0.5592596112012107
306,V1,d09172021,S5lJ6,final_decisions,1.0,0.0,18.0,0.0,0.0,32.0,7.0,Kupkb1.jpg,Macb1n.jpg,31.0,46.0,1.0,32.0,7.0,0.0,0.698,-0.5630169620071291,-15.0,-0.7024639661906117,0.060162776356493704,-0.7626267425471054
307,V1,d09172021,S5lJ6,final_decisions,1.0,0.0,19.0,1.0,1.0,30.0,64.0,Kraa1n.jpg,Vincb1.jpg,31.0,40.0,1.0,30.0,64.0,1.0,0.729,-0.4663084145575941,-9.0,-0.7024639661906117,-0.24488792066234846,-0.45757604552826325
308,V1,d09172021,S5lJ6,final_decisions,1.0,0.0,20.0,0.0,0.0,29.0,55.0,Klinb1.jpg,Clia1n.jpg,60.0,56.0,0.0,55.0,29.0,1.0,1.186,0.9593627526823245,4.0,0.7719477360671254,0.5685806047212306,0.2033671313458948
309,V1,d09172021,S5lJ6,final_decisions,1.0,0.0,21.0,0.0,1.0,55.0,32.0,Clia1n.jpg,Kupkb1.jpg,56.0,31.0,1.0,55.0,32.0,1.0,0.97,0.2855225510984681,25.0,0.5685806047212306,-0.7024639661906117,1.2710445709118423
310,V1,d09172021,S5lJ6,final_decisions,1.0,0.0,22.0,1.0,0.0,50.0,30.0,Klic1n.jpg,Kraa1n.jpg,32.0,31.0,1.0,50.0,30.0,0.0,0.815,-0.19802018614920686,1.0,-0.651622183354138,-0.7024639661906117,0.05084178283647367
311,V1,d09172021,S5lJ6,final_decisions,1.0,1.0,23.0,1.0,0.0,63.0,53.0,Lewia1.jpg,Macc1n.jpg,37.0,38.0,0.0,53.0,63.0,1.0,0.966,0.27304402884691514,-1.0,-0.39741326917176956,-0.34657148633529583,-0.050841782836473726
312,V1,d09172021,S5lJ6,final_decisions,1.0,1.0,24.0,0.0,1.0,33.0,36.0,Kline1.jpg,Gustb1.jpg,55.0,43.0,0.0,36.0,33.0,0.0,1.159,0.8751327274843427,12.0,0.517738821884757,-0.09236257215292738,0.6101013940376844
313,V1,d09172021,S5lJ6,final_decisions,1.0,0.0,25.0,1.0,1.0,12.0,64.0,Klie1n.jpg,Vincb1.jpg,59.0,40.0,1.0,12.0,64.0,1.0,0.834,-0.13874720545433053,19.0,0.7211059532306517,-0.24488792066234846,0.9659938738930002
314,V1,d09172021,S5lJ6,final_decisions,1.0,1.0,26.0,1.0,1.0,6.0,43.0,Gusc1n.jpg,Clifb1.jpg,53.0,35.0,1.0,6.0,43.0,1.0,0.59,-0.8999370627990574,18.0,0.41605525621180955,-0.49909683484471695,0.9151520910565265
315,V1,d09172021,S5lJ6,final_decisions,1.0,0.0,27.0,1.0,1.0,38.0,23.0,Krasa1.jpg,Rohlb1.jpg,36.0,33.0,1.0,38.0,23.0,1.0,0.969,0.2824029205355798,3.0,-0.4482550520082432,-0.6007804005176643,0.15252534850942112
316,V1,d09172021,S5lJ6,final_decisions,1.0,0.0,28.0,0.0,1.0,51.0,15.0,Lewic1.jpg,Lassc1.jpg,50.0,35.0,0.0,15.0,51.0,0.0,2.137,3.9261314179890268,15.0,0.2635299077023885,-0.49909683484471695,0.7626267425471054
317,V1,d09172021,S5lJ6,final_decisions,1.0,1.0,29.0,0.0,1.0,33.0,19.0,Kline1.jpg,Picc1n.jpg,55.0,33.0,0.0,19.0,33.0,0.0,1.28,1.252608025593818,22.0,0.517738821884757,-0.6007804005176643,1.1185192224024214
318,V1,d09172021,S5lJ6,final_decisions,1.0,0.0,30.0,0.0,0.0,29.0,7.0,Klinb1.jpg,Macb1n.jpg,60.0,46.0,1.0,29.0,7.0,0.0,1.462,1.8203807880394747,14.0,0.7719477360671254,0.060162776356493704,0.7117849597106317
319,V1,d09172021,S5lJ6,final_decisions,1.0,0.0,31.0,1.0,0.0,50.0,38.0,Klic1n.jpg,Krasa1.jpg,32.0,36.0,1.0,50.0,38.0,0.0,0.783,-0.2978483641616298,-4.0,-0.651622183354138,-0.4482550520082432,-0.2033671313458948
320,V1,d09172021,S5lJ6,final_decisions,1.0,0.0,32.0,0.0,1.0,51.0,29.0,Lewic1.jpg,Klinb1.jpg,50.0,60.0,0.0,29.0,51.0,0.0,1.219,1.0623105612576365,-10.0,0.2635299077023885,0.7719477360671254,-0.5084178283647369
321,V1,d09172021,S5lJ6,final_decisions,1.0,1.0,33.0,0.0,0.0,19.0,4.0,Picc1n.jpg,Krasb1.jpg,33.0,32.0,1.0,19.0,4.0,0.0,0.711,-0.5224617646895822,1.0,-0.6007804005176643,-0.651622183354138,0.05084178283647367
322,V1,d09172021,S5lJ6,final_decisions,1.0,1.0,34.0,1.0,0.0,43.0,57.0,Clifb1.jpg,Lassa1.jpg,35.0,58.0,0.0,57.0,43.0,1.0,0.743,-0.4226335866771589,-23.0,-0.49909683484471695,0.6702641703941781,-1.169361005238895
323,V1,d09172021,S5lJ6,final_decisions,1.0,0.0,35.0,1.0,1.0,30.0,23.0,Kraa1n.jpg,Rohlb1.jpg,31.0,33.0,1.0,30.0,23.0,1.0,1.096,0.6785960020223847,-2.0,-0.7024639661906117,-0.6007804005176643,-0.10168356567294734
324,V1,d09172021,S5lJ6,final_decisions,2.0,0.0,36.0,1.0,0.0,50.0,30.0,Klic1n.jpg,Kraa1n.jpg,32.0,31.0,,,,,,,1.0,-0.651622183354138,-0.7024639661906117,0.05084178283647367
325,V1,d09172021,S5lJ6,final_decisions,2.0,1.0,37.0,0.0,0.0,19.0,4.0,Picc1n.jpg,Krasb1.jpg,33.0,32.0,1.0,19.0,4.0,0.0,0.953,0.2324888315293682,1.0,-0.6007804005176643,-0.651622183354138,0.05084178283647367
326,V1,d09172021,S5lJ6,final_decisions,2.0,0.0,38.0,0.0,0.0,32.0,51.0,Kupkb1.jpg,Lewic1.jpg,31.0,50.0,1.0,32.0,51.0,0.0,0.894,0.04843062831896311,-19.0,-0.7024639661906117,0.2635299077023885,-0.9659938738930002
327,V1,d09172021,S5lJ6,final_decisions,2.0,1.0,39.0,0.0,1.0,4.0,37.0,Krasb1.jpg,Deka1n.jpg,32.0,31.0,0.0,37.0,4.0,0.0,0.62,-0.8063481459124106,1.0,-0.651622183354138,-0.7024639661906117,0.05084178283647367
328,V1,d09172021,S5lJ6,final_decisions,2.0,1.0,40.0,0.0,1.0,18.0,37.0,Krab1n.jpg,Deka1n.jpg,44.0,31.0,0.0,37.0,18.0,0.0,0.521,-1.1151915716383447,13.0,-0.041520789316453685,-0.7024639661906117,0.660943176874158
329,V1,d09172021,S5lJ6,final_decisions,2.0,1.0,41.0,1.0,0.0,66.0,6.0,Vinca1.jpg,Gusc1n.jpg,44.0,53.0,0.0,6.0,66.0,1.0,0.87,-0.026440505190354353,-9.0,-0.041520789316453685,0.41605525621180955,-0.45757604552826325
330,V1,d09172021,S5lJ6,final_decisions,2.0,0.0,42.0,0.0,1.0,55.0,29.0,Clia1n.jpg,Klinb1.jpg,56.0,60.0,0.0,29.0,55.0,0.0,0.878,-0.0014834606872485322,-4.0,0.5685806047212306,0.7719477360671254,-0.2033671313458948
331,V1,d09172021,S5lJ6,final_decisions,2.0,0.0,43.0,0.0,1.0,51.0,15.0,Lewic1.jpg,Lassc1.jpg,50.0,35.0,0.0,15.0,51.0,0.0,0.556,-1.0060045019372568,15.0,0.2635299077023885,-0.49909683484471695,0.7626267425471054
332,V1,d09172021,S5lJ6,final_decisions,2.0,0.0,44.0,1.0,0.0,23.0,38.0,Rohlb1.jpg,Krasa1.jpg,33.0,36.0,0.0,38.0,23.0,1.0,0.597,-0.8780996488588397,-3.0,-0.6007804005176643,-0.4482550520082432,-0.15252534850942112
333,V1,d09172021,S5lJ6,final_decisions,2.0,0.0,45.0,0.0,0.0,29.0,51.0,Klinb1.jpg,Lewic1.jpg,60.0,50.0,1.0,29.0,51.0,0.0,0.683,-0.6098114204504522,10.0,0.7719477360671254,0.2635299077023885,0.5084178283647369
334,V1,d09172021,S5lJ6,final_decisions,2.0,0.0,46.0,0.0,1.0,55.0,32.0,Clia1n.jpg,Kupkb1.jpg,56.0,31.0,1.0,55.0,32.0,1.0,1.101,0.6941941548368256,25.0,0.5685806047212306,-0.7024639661906117,1.2710445709118423
335,V1,d09172021,S5lJ6,final_decisions,2.0,1.0,47.0,0.0,1.0,18.0,19.0,Krab1n.jpg,Picc1n.jpg,44.0,33.0,0.0,19.0,18.0,0.0,0.893,0.04531099775607488,11.0,-0.041520789316453685,-0.6007804005176643,0.5592596112012107
336,V1,d09172021,S5lJ6,final_decisions,2.0,0.0,48.0,1.0,1.0,38.0,64.0,Krasa1.jpg,Vincb1.jpg,36.0,40.0,1.0,38.0,64.0,1.0,0.609,-0.8406640821041811,-4.0,-0.4482550520082432,-0.24488792066234846,-0.20336713134589476
337,V1,d09172021,S5lJ6,final_decisions,2.0,1.0,49.0,0.0,1.0,18.0,36.0,Krab1n.jpg,Gustb1.jpg,44.0,43.0,0.0,36.0,18.0,0.0,0.817,-0.19178092502343042,1.0,-0.041520789316453685,-0.09236257215292738,0.0508417828364737
338,V1,d09172021,S5lJ6,final_decisions,2.0,0.0,50.0,0.0,0.0,15.0,7.0,Lassc1.jpg,Macb1n.jpg,35.0,46.0,1.0,15.0,7.0,0.0,0.589,-0.9030566933619456,-11.0,-0.49909683484471695,0.060162776356493704,-0.5592596112012107
339,V1,d09172021,S5lJ6,final_decisions,2.0,1.0,51.0,1.0,1.0,57.0,43.0,Lassa1.jpg,Clifb1.jpg,58.0,35.0,1.0,57.0,43.0,1.0,0.511,-1.146387877267227,23.0,0.6702641703941781,-0.49909683484471695,1.169361005238895
340,V1,d09172021,S5lJ6,final_decisions,2.0,1.0,52.0,1.0,1.0,57.0,63.0,Lassa1.jpg,Lewia1.jpg,58.0,37.0,1.0,57.0,63.0,1.0,0.554,-1.0122437630630332,21.0,0.6702641703941781,-0.39741326917176956,1.0676774395659476
341,V1,d09172021,S5lJ6,final_decisions,2.0,0.0,53.0,1.0,1.0,12.0,50.0,Klie1n.jpg,Klic1n.jpg,59.0,32.0,1.0,12.0,50.0,1.0,0.807,-0.22297723065231234,27.0,0.7211059532306517,-0.651622183354138,1.3727281365847896
342,V1,d09172021,S5lJ6,final_decisions,2.0,0.0,54.0,0.0,1.0,55.0,15.0,Clia1n.jpg,Lassc1.jpg,56.0,35.0,0.0,15.0,55.0,0.0,0.682,-0.6129310510133404,21.0,0.5685806047212306,-0.49909683484471695,1.0676774395659476
343,V1,d09172021,S5lJ6,final_decisions,2.0,1.0,55.0,1.0,0.0,63.0,53.0,Lewia1.jpg,Macc1n.jpg,37.0,38.0,0.0,53.0,63.0,1.0,0.792,-0.26977168909563576,-1.0,-0.39741326917176956,-0.34657148633529583,-0.050841782836473726
344,V1,d09172021,S5lJ6,final_decisions,2.0,0.0,56.0,1.0,0.0,50.0,38.0,Klic1n.jpg,Krasa1.jpg,32.0,36.0,1.0,50.0,38.0,0.0,0.792,-0.26977168909563576,-4.0,-0.651622183354138,-0.4482550520082432,-0.2033671313458948
345,V1,d09172021,S5lJ6,final_decisions,2.0,0.0,57.0,1.0,1.0,30.0,64.0,Kraa1n.jpg,Vincb1.jpg,31.0,40.0,1.0,30.0,64.0,1.0,0.908,0.09210545619939829,-9.0,-0.7024639661906117,-0.24488792066234846,-0.45757604552826325
346,V1,d09172021,S5lJ6,final_decisions,2.0,0.0,58.0,1.0,1.0,30.0,23.0,Kraa1n.jpg,Rohlb1.jpg,31.0,33.0,1.0,30.0,23.0,1.0,0.538,-1.062157852069245,-2.0,-0.7024639661906117,-0.6007804005176643,-0.10168356567294734
347,V1,d09172021,S5lJ6,final_decisions,2.0,1.0,59.0,1.0,1.0,6.0,63.0,Gusc1n.jpg,Lewia1.jpg,53.0,37.0,1.0,6.0,63.0,1.0,0.608,-0.8437837126670693,16.0,0.41605525621180955,-0.39741326917176956,0.8134685253835792
348,V1,d09172021,S5lJ6,final_decisions,2.0,0.0,60.0,1.0,1.0,12.0,23.0,Klie1n.jpg,Rohlb1.jpg,59.0,33.0,1.0,12.0,23.0,1.0,0.735,-0.4475906311802647,26.0,0.7211059532306517,-0.6007804005176643,1.321886353748316
349,V1,d09172021,S5lJ6,final_decisions,2.0,1.0,61.0,1.0,1.0,53.0,66.0,Macc1n.jpg,Vinca1.jpg,38.0,44.0,1.0,53.0,66.0,1.0,0.761,-0.3664802365451708,-6.0,-0.34657148633529583,-0.041520789316453685,-0.30505069701884213
350,V1,d09172021,S5lJ6,final_decisions,2.0,1.0,62.0,1.0,0.0,66.0,57.0,Vinca1.jpg,Lassa1.jpg,44.0,58.0,0.0,57.0,66.0,1.0,0.599,-0.8718603877330633,-14.0,-0.041520789316453685,0.6702641703941781,-0.7117849597106317
351,V1,d09172021,S5lJ6,final_decisions,2.0,1.0,63.0,0.0,0.0,36.0,33.0,Gustb1.jpg,Kline1.jpg,43.0,55.0,0.0,33.0,36.0,1.0,0.918,0.12330176182828056,-12.0,-0.09236257215292738,0.517738821884757,-0.6101013940376844
352,V1,d09172021,S5lJ6,final_decisions,2.0,0.0,64.0,0.0,1.0,7.0,29.0,Macb1n.jpg,Klinb1.jpg,46.0,60.0,0.0,29.0,7.0,0.0,0.996,0.366632945733562,-14.0,0.060162776356493704,0.7719477360671254,-0.7117849597106317
353,V1,d09172021,S5lJ6,final_decisions,2.0,0.0,65.0,1.0,0.0,64.0,12.0,Vincb1.jpg,Klie1n.jpg,40.0,59.0,0.0,12.0,64.0,1.0,0.961,0.257445876032474,-19.0,-0.24488792066234846,0.7211059532306517,-0.9659938738930002
354,V1,d09172021,S5lJ6,final_decisions,2.0,1.0,66.0,1.0,1.0,6.0,43.0,Gusc1n.jpg,Clifb1.jpg,53.0,35.0,1.0,6.0,43.0,1.0,0.525,-1.1027130493867918,18.0,0.41605525621180955,-0.49909683484471695,0.9151520910565265
355,V1,d09172021,S5lJ6,final_decisions,2.0,0.0,67.0,0.0,0.0,32.0,7.0,Kupkb1.jpg,Macb1n.jpg,31.0,46.0,0.0,7.0,32.0,1.0,0.734,-0.45071026174315293,-15.0,-0.7024639661906117,0.060162776356493704,-0.7626267425471054
356,V1,d09172021,S5lJ6,final_decisions,2.0,1.0,68.0,0.0,1.0,4.0,36.0,Krasb1.jpg,Gustb1.jpg,32.0,43.0,0.0,36.0,4.0,0.0,0.686,-0.6004525287617876,-11.0,-0.651622183354138,-0.09236257215292738,-0.5592596112012106
357,V1,d09172021,S5lJ6,final_decisions,2.0,1.0,69.0,1.0,0.0,43.0,53.0,Clifb1.jpg,Macc1n.jpg,35.0,38.0,0.0,53.0,43.0,1.0,0.833,-0.14186683601721878,-3.0,-0.49909683484471695,-0.34657148633529583,-0.15252534850942112
358,V1,d09172021,S5lJ6,final_decisions,2.0,1.0,70.0,0.0,0.0,19.0,33.0,Picc1n.jpg,Kline1.jpg,33.0,55.0,0.0,33.0,19.0,1.0,0.44,-1.367881647232291,-22.0,-0.6007804005176643,0.517738821884757,-1.1185192224024214
359,V1,d09172021,S5lJ6,final_decisions,2.0,1.0,71.0,0.0,0.0,37.0,33.0,Deka1n.jpg,Kline1.jpg,31.0,55.0,0.0,33.0,37.0,1.0,0.627,-0.7845107319721929,-24.0,-0.7024639661906117,0.517738821884757,-1.2202027880753685
360,V1,d09172021,S5lJ6,final_decisions,3.0,0.0,72.0,0.0,0.0,32.0,55.0,Kupkb1.jpg,Clia1n.jpg,31.0,56.0,0.0,55.0,32.0,1.0,1.296,1.3025221146000296,-25.0,-0.7024639661906117,0.5685806047212306,-1.2710445709118423
361,V1,d09172021,S5lJ6,final_decisions,3.0,0.0,73.0,1.0,1.0,12.0,64.0,Klie1n.jpg,Vincb1.jpg,59.0,40.0,1.0,12.0,64.0,1.0,0.596,-0.881219279421728,19.0,0.7211059532306517,-0.24488792066234846,0.9659938738930002
362,V1,d09172021,S5lJ6,final_decisions,3.0,1.0,74.0,1.0,1.0,6.0,63.0,Gusc1n.jpg,Lewia1.jpg,53.0,37.0,1.0,6.0,63.0,1.0,0.556,-1.0060045019372568,16.0,0.41605525621180955,-0.39741326917176956,0.8134685253835792
363,V1,d09172021,S5lJ6,final_decisions,3.0,0.0,75.0,0.0,1.0,7.0,32.0,Macb1n.jpg,Kupkb1.jpg,46.0,31.0,1.0,7.0,32.0,1.0,1.262,1.1964546754618297,15.0,0.060162776356493704,-0.7024639661906117,0.7626267425471054
364,V1,d09172021,S5lJ6,final_decisions,3.0,0.0,76.0,0.0,0.0,29.0,55.0,Klinb1.jpg,Clia1n.jpg,60.0,56.0,1.0,29.0,55.0,0.0,0.697,-0.5661365925700174,4.0,0.7719477360671254,0.5685806047212306,0.2033671313458948
365,V1,d09172021,S5lJ6,final_decisions,3.0,1.0,77.0,1.0,1.0,53.0,63.0,Macc1n.jpg,Lewia1.jpg,38.0,37.0,1.0,53.0,63.0,1.0,0.657,-0.6909218150855462,1.0,-0.34657148633529583,-0.39741326917176956,0.050841782836473726
366,V1,d09172021,S5lJ6,final_decisions,3.0,0.0,78.0,1.0,1.0,38.0,23.0,Krasa1.jpg,Rohlb1.jpg,36.0,33.0,1.0,38.0,23.0,1.0,0.709,-0.5287010258153586,3.0,-0.4482550520082432,-0.6007804005176643,0.15252534850942112
367,V1,d09172021,S5lJ6,final_decisions,3.0,0.0,79.0,1.0,1.0,38.0,50.0,Krasa1.jpg,Klic1n.jpg,36.0,32.0,1.0,38.0,50.0,1.0,0.73,-0.46318878399470587,4.0,-0.4482550520082432,-0.651622183354138,0.2033671313458948
368,V1,d09172021,S5lJ6,final_decisions,3.0,1.0,80.0,0.0,0.0,19.0,4.0,Picc1n.jpg,Krasb1.jpg,33.0,32.0,1.0,19.0,4.0,0.0,0.683,-0.6098114204504522,1.0,-0.6007804005176643,-0.651622183354138,0.05084178283647367
369,V1,d09172021,S5lJ6,final_decisions,3.0,0.0,81.0,1.0,0.0,50.0,12.0,Klic1n.jpg,Klie1n.jpg,32.0,59.0,0.0,12.0,50.0,1.0,0.882,0.010995061564304378,-27.0,-0.651622183354138,0.7211059532306517,-1.3727281365847896
370,V1,d09172021,S5lJ6,final_decisions,3.0,1.0,82.0,1.0,1.0,53.0,66.0,Macc1n.jpg,Vinca1.jpg,38.0,44.0,1.0,53.0,66.0,1.0,0.667,-0.6597255094566639,-6.0,-0.34657148633529583,-0.041520789316453685,-0.30505069701884213
371,V1,d09172021,S5lJ6,final_decisions,3.0,1.0,83.0,0.0,0.0,37.0,4.0,Deka1n.jpg,Krasb1.jpg,31.0,32.0,1.0,37.0,4.0,0.0,0.937,0.1825747425231569,-1.0,-0.7024639661906117,-0.651622183354138,-0.05084178283647367
372,V1,d09172021,S5lJ6,final_decisions,3.0,0.0,84.0,1.0,0.0,64.0,30.0,Vincb1.jpg,Kraa1n.jpg,40.0,31.0,1.0,64.0,30.0,0.0,0.706,-0.5380599175040234,9.0,-0.24488792066234846,-0.7024639661906117,0.45757604552826325
373,V1,d09172021,S5lJ6,final_decisions,3.0,1.0,85.0,1.0,0.0,43.0,6.0,Clifb1.jpg,Gusc1n.jpg,35.0,53.0,0.0,6.0,43.0,1.0,0.887,0.026593214378745515,-18.0,-0.49909683484471695,0.41605525621180955,-0.9151520910565265
374,V1,d09172021,S5lJ6,final_decisions,3.0,1.0,86.0,1.0,0.0,43.0,57.0,Clifb1.jpg,Lassa1.jpg,35.0,58.0,0.0,57.0,43.0,1.0,0.652,-0.7065199678999873,-23.0,-0.49909683484471695,0.6702641703941781,-1.169361005238895
375,V1,d09172021,S5lJ6,final_decisions,3.0,1.0,87.0,1.0,0.0,63.0,57.0,Lewia1.jpg,Lassa1.jpg,37.0,58.0,0.0,57.0,63.0,1.0,0.504,-1.1682252912074447,-21.0,-0.39741326917176956,0.6702641703941781,-1.0676774395659476
376,V1,d09172021,S5lJ6,final_decisions,3.0,0.0,88.0,1.0,1.0,38.0,64.0,Krasa1.jpg,Vincb1.jpg,36.0,40.0,1.0,38.0,64.0,1.0,0.715,-0.5099832424380293,-4.0,-0.4482550520082432,-0.24488792066234846,-0.20336713134589476
377,V1,d09172021,S5lJ6,final_decisions,3.0,1.0,89.0,0.0,1.0,18.0,36.0,Krab1n.jpg,Gustb1.jpg,44.0,43.0,0.0,36.0,18.0,0.0,0.875,-0.010842352375913215,1.0,-0.041520789316453685,-0.09236257215292738,0.0508417828364737
378,V1,d09172021,S5lJ6,final_decisions,3.0,0.0,90.0,0.0,0.0,15.0,55.0,Lassc1.jpg,Clia1n.jpg,35.0,56.0,1.0,15.0,55.0,0.0,0.636,-0.7564340569061989,-21.0,-0.49909683484471695,0.5685806047212306,-1.0676774395659476
379,V1,d09172021,S5lJ6,final_decisions,3.0,0.0,91.0,0.0,1.0,51.0,32.0,Lewic1.jpg,Kupkb1.jpg,50.0,31.0,1.0,51.0,32.0,1.0,0.961,0.257445876032474,19.0,0.2635299077023885,-0.7024639661906117,0.9659938738930002
380,V1,d09172021,S5lJ6,final_decisions,3.0,0.0,92.0,0.0,1.0,51.0,15.0,Lewic1.jpg,Lassc1.jpg,50.0,35.0,0.0,15.0,51.0,0.0,0.737,-0.44135137005448827,15.0,0.2635299077023885,-0.49909683484471695,0.7626267425471054
381,V1,d09172021,S5lJ6,final_decisions,3.0,0.0,93.0,1.0,0.0,23.0,12.0,Rohlb1.jpg,Klie1n.jpg,33.0,59.0,0.0,12.0,23.0,1.0,0.649,-0.7158788595886519,-26.0,-0.6007804005176643,0.7211059532306517,-1.321886353748316
382,V1,d09172021,S5lJ6,final_decisions,3.0,1.0,94.0,0.0,1.0,18.0,19.0,Krab1n.jpg,Picc1n.jpg,44.0,33.0,0.0,19.0,18.0,0.0,1.302,1.321239897977359,11.0,-0.041520789316453685,-0.6007804005176643,0.5592596112012107
383,V1,d09172021,S5lJ6,final_decisions,3.0,0.0,95.0,1.0,0.0,50.0,30.0,Klic1n.jpg,Kraa1n.jpg,32.0,31.0,0.0,30.0,50.0,1.0,1.01,0.4103077736139972,1.0,-0.651622183354138,-0.7024639661906117,0.05084178283647367
384,V1,d09172021,S5lJ6,final_decisions,3.0,1.0,96.0,1.0,0.0,66.0,6.0,Vinca1.jpg,Gusc1n.jpg,44.0,53.0,0.0,6.0,66.0,1.0,1.061,0.5694089323212964,-9.0,-0.041520789316453685,0.41605525621180955,-0.45757604552826325
385,V1,d09172021,S5lJ6,final_decisions,3.0,1.0,97.0,0.0,0.0,36.0,4.0,Gustb1.jpg,Krasb1.jpg,43.0,32.0,1.0,36.0,4.0,0.0,0.658,-0.6878021845226578,11.0,-0.09236257215292738,-0.651622183354138,0.5592596112012106
386,V1,d09172021,S5lJ6,final_decisions,3.0,1.0,98.0,1.0,1.0,57.0,66.0,Lassa1.jpg,Vinca1.jpg,58.0,44.0,1.0,57.0,66.0,1.0,0.531,-1.0839952660094625,14.0,0.6702641703941781,-0.041520789316453685,0.7117849597106317
387,V1,d09172021,S5lJ6,final_decisions,3.0,1.0,99.0,0.0,1.0,33.0,19.0,Kline1.jpg,Picc1n.jpg,55.0,33.0,1.0,33.0,19.0,1.0,0.468,-1.2805319914714206,22.0,0.517738821884757,-0.6007804005176643,1.1185192224024214
388,V1,d09172021,S5lJ6,final_decisions,3.0,0.0,100.0,0.0,1.0,7.0,29.0,Macb1n.jpg,Klinb1.jpg,46.0,60.0,0.0,29.0,7.0,0.0,1.083,0.6380408047048374,-14.0,0.060162776356493704,0.7719477360671254,-0.7117849597106317
389,V1,d09172021,S5lJ6,final_decisions,3.0,1.0,101.0,0.0,0.0,37.0,18.0,Deka1n.jpg,Krab1n.jpg,31.0,44.0,1.0,37.0,18.0,0.0,2.033,3.601689839448651,-13.0,-0.7024639661906117,-0.041520789316453685,-0.660943176874158
390,V1,d09172021,S5lJ6,final_decisions,3.0,1.0,102.0,0.0,1.0,33.0,36.0,Kline1.jpg,Gustb1.jpg,55.0,43.0,0.0,36.0,33.0,0.0,1.039,0.5007770599377555,12.0,0.517738821884757,-0.09236257215292738,0.6101013940376844
391,V1,d09172021,S5lJ6,final_decisions,3.0,1.0,103.0,1.0,1.0,53.0,43.0,Macc1n.jpg,Clifb1.jpg,38.0,35.0,1.0,53.0,43.0,1.0,0.658,-0.6878021845226578,3.0,-0.34657148633529583,-0.49909683484471695,0.15252534850942112
392,V1,d09172021,S5lJ6,final_decisions,3.0,0.0,104.0,0.0,0.0,29.0,51.0,Klinb1.jpg,Lewic1.jpg,60.0,50.0,1.0,29.0,51.0,0.0,1.111,0.7253904604657078,10.0,0.7719477360671254,0.2635299077023885,0.5084178283647369
393,V1,d09172021,S5lJ6,final_decisions,3.0,0.0,105.0,0.0,1.0,7.0,15.0,Macb1n.jpg,Lassc1.jpg,46.0,35.0,0.0,15.0,7.0,0.0,1.212,1.0404731473174185,11.0,0.060162776356493704,-0.49909683484471695,0.5592596112012107
394,V1,d09172021,S5lJ6,final_decisions,3.0,1.0,106.0,0.0,1.0,33.0,37.0,Kline1.jpg,Deka1n.jpg,55.0,31.0,1.0,33.0,37.0,1.0,1.38,1.56457108188264,24.0,0.517738821884757,-0.7024639661906117,1.2202027880753685
395,V1,d09172021,S5lJ6,final_decisions,3.0,0.0,107.0,1.0,1.0,30.0,23.0,Kraa1n.jpg,Rohlb1.jpg,31.0,33.0,1.0,30.0,23.0,1.0,0.85,-0.0888331164481189,-2.0,-0.7024639661906117,-0.6007804005176643,-0.10168356567294734
396,V1,d09172021,S5lJ6,final_decisions,4.0,1.0,108.0,1.0,0.0,43.0,57.0,Clifb1.jpg,Lassa1.jpg,35.0,58.0,0.0,57.0,43.0,1.0,0.579,-0.9342529989908279,-23.0,-0.49909683484471695,0.6702641703941781,-1.169361005238895
397,V1,d09172021,S5lJ6,final_decisions,4.0,0.0,109.0,1.0,1.0,38.0,50.0,Krasa1.jpg,Klic1n.jpg,36.0,32.0,1.0,38.0,50.0,1.0,0.578,-0.9373726295537161,4.0,-0.4482550520082432,-0.651622183354138,0.2033671313458948
398,V1,d09172021,S5lJ6,final_decisions,4.0,1.0,110.0,0.0,1.0,18.0,37.0,Krab1n.jpg,Deka1n.jpg,44.0,31.0,0.0,37.0,18.0,0.0,0.97,0.2855225510984681,13.0,-0.041520789316453685,-0.7024639661906117,0.660943176874158
399,V1,d09172021,S5lJ6,final_decisions,4.0,1.0,111.0,1.0,1.0,6.0,43.0,Gusc1n.jpg,Clifb1.jpg,53.0,35.0,1.0,6.0,43.0,1.0,0.733,-0.4538298923060412,18.0,0.41605525621180955,-0.49909683484471695,0.9151520910565265
400,V1,d09172021,S5lJ6,final_decisions,4.0,1.0,112.0,1.0,1.0,6.0,66.0,Gusc1n.jpg,Vinca1.jpg,53.0,44.0,1.0,6.0,66.0,1.0,0.469,-1.2774123609085326,9.0,0.41605525621180955,-0.041520789316453685,0.45757604552826325
401,V1,d09172021,S5lJ6,final_decisions,4.0,1.0,113.0,0.0,0.0,19.0,18.0,Picc1n.jpg,Krab1n.jpg,33.0,44.0,1.0,19.0,18.0,0.0,0.895,0.05155025888185134,-11.0,-0.6007804005176643,-0.041520789316453685,-0.5592596112012107
402,V1,d09172021,S5lJ6,final_decisions,4.0,0.0,114.0,0.0,1.0,7.0,32.0,Macb1n.jpg,Kupkb1.jpg,46.0,31.0,1.0,7.0,32.0,1.0,0.754,-0.3883176504853884,15.0,0.060162776356493704,-0.7024639661906117,0.7626267425471054
403,V1,d09172021,S5lJ6,final_decisions,4.0,1.0,115.0,0.0,1.0,4.0,36.0,Krasb1.jpg,Gustb1.jpg,32.0,43.0,0.0,36.0,4.0,0.0,1.013,0.4196666653026615,-11.0,-0.651622183354138,-0.09236257215292738,-0.5592596112012106
404,V1,d09172021,S5lJ6,final_decisions,4.0,0.0,116.0,1.0,0.0,50.0,12.0,Klic1n.jpg,Klie1n.jpg,32.0,59.0,0.0,12.0,50.0,1.0,0.978,0.3104795956015739,-27.0,-0.651622183354138,0.7211059532306517,-1.3727281365847896
405,V1,d09172021,S5lJ6,final_decisions,4.0,0.0,117.0,1.0,0.0,23.0,12.0,Rohlb1.jpg,Klie1n.jpg,33.0,59.0,0.0,12.0,23.0,1.0,0.735,-0.4475906311802647,-26.0,-0.6007804005176643,0.7211059532306517,-1.321886353748316
406,V1,d09172021,S5lJ6,final_decisions,4.0,1.0,118.0,1.0,0.0,63.0,53.0,Lewia1.jpg,Macc1n.jpg,37.0,38.0,0.0,53.0,63.0,1.0,2.026,3.579852425508433,-1.0,-0.39741326917176956,-0.34657148633529583,-0.050841782836473726
407,V1,d09172021,S5lJ6,final_decisions,4.0,1.0,119.0,1.0,0.0,43.0,53.0,Clifb1.jpg,Macc1n.jpg,35.0,38.0,0.0,53.0,43.0,1.0,0.592,-0.893697801673281,-3.0,-0.49909683484471695,-0.34657148633529583,-0.15252534850942112
408,V1,d09172021,S5lJ6,final_decisions,4.0,1.0,120.0,1.0,0.0,63.0,6.0,Lewia1.jpg,Gusc1n.jpg,37.0,53.0,0.0,6.0,63.0,1.0,1.194,0.9843197971854303,-16.0,-0.39741326917176956,0.41605525621180955,-0.8134685253835792
409,V1,d09172021,S5lJ6,final_decisions,4.0,0.0,121.0,0.0,0.0,29.0,51.0,Klinb1.jpg,Lewic1.jpg,60.0,50.0,1.0,29.0,51.0,0.0,0.932,0.16697658970871576,10.0,0.7719477360671254,0.2635299077023885,0.5084178283647369
410,V1,d09172021,S5lJ6,final_decisions,4.0,1.0,122.0,0.0,1.0,4.0,37.0,Krasb1.jpg,Deka1n.jpg,32.0,31.0,0.0,37.0,4.0,0.0,1.125,0.769065288346143,1.0,-0.651622183354138,-0.7024639661906117,0.05084178283647367
411,V1,d09172021,S5lJ6,final_decisions,4.0,0.0,123.0,0.0,1.0,51.0,32.0,Lewic1.jpg,Kupkb1.jpg,50.0,31.0,0.0,32.0,51.0,0.0,1.096,0.6785960020223847,19.0,0.2635299077023885,-0.7024639661906117,0.9659938738930002
412,V1,d09172021,S5lJ6,final_decisions,4.0,0.0,124.0,1.0,0.0,64.0,30.0,Vincb1.jpg,Kraa1n.jpg,40.0,31.0,0.0,30.0,64.0,1.0,0.845,-0.10443126926256004,9.0,-0.24488792066234846,-0.7024639661906117,0.45757604552826325
413,V1,d09172021,S5lJ6,final_decisions,4.0,0.0,125.0,0.0,0.0,15.0,51.0,Lassc1.jpg,Lewic1.jpg,35.0,50.0,1.0,15.0,51.0,0.0,0.703,-0.547418809192688,-15.0,-0.49909683484471695,0.2635299077023885,-0.7626267425471054
414,V1,d09172021,S5lJ6,final_decisions,4.0,0.0,126.0,1.0,0.0,50.0,30.0,Klic1n.jpg,Kraa1n.jpg,32.0,31.0,0.0,30.0,50.0,1.0,0.845,-0.10443126926256004,1.0,-0.651622183354138,-0.7024639661906117,0.05084178283647367
415,V1,d09172021,S5lJ6,final_decisions,4.0,0.0,127.0,1.0,1.0,38.0,64.0,Krasa1.jpg,Vincb1.jpg,36.0,40.0,1.0,38.0,64.0,1.0,1.008,0.4040685124882207,-4.0,-0.4482550520082432,-0.24488792066234846,-0.20336713134589476
416,V1,d09172021,S5lJ6,final_decisions,4.0,0.0,128.0,0.0,1.0,55.0,32.0,Clia1n.jpg,Kupkb1.jpg,56.0,31.0,0.0,32.0,55.0,0.0,0.823,-0.17306314164610104,25.0,0.5685806047212306,-0.7024639661906117,1.2710445709118423
417,V1,d09172021,S5lJ6,final_decisions,4.0,1.0,129.0,0.0,1.0,18.0,36.0,Krab1n.jpg,Gustb1.jpg,44.0,43.0,0.0,36.0,18.0,0.0,0.802,-0.23857538346675347,1.0,-0.041520789316453685,-0.09236257215292738,0.0508417828364737
418,V1,d09172021,S5lJ6,final_decisions,4.0,1.0,130.0,0.0,1.0,33.0,36.0,Kline1.jpg,Gustb1.jpg,55.0,43.0,1.0,33.0,36.0,1.0,0.93,0.1607373285829393,12.0,0.517738821884757,-0.09236257215292738,0.6101013940376844
419,V1,d09172021,S5lJ6,final_decisions,4.0,1.0,131.0,1.0,1.0,53.0,66.0,Macc1n.jpg,Vinca1.jpg,38.0,44.0,1.0,53.0,66.0,1.0,0.561,-0.9904063491228157,-6.0,-0.34657148633529583,-0.041520789316453685,-0.30505069701884213
420,V1,d09172021,S5lJ6,final_decisions,4.0,1.0,132.0,0.0,0.0,37.0,33.0,Deka1n.jpg,Kline1.jpg,31.0,55.0,0.0,33.0,37.0,1.0,0.738,-0.43823173949160005,-24.0,-0.7024639661906117,0.517738821884757,-1.2202027880753685
421,V1,d09172021,S5lJ6,final_decisions,4.0,0.0,133.0,0.0,1.0,55.0,15.0,Clia1n.jpg,Lassc1.jpg,56.0,35.0,0.0,15.0,55.0,0.0,0.703,-0.547418809192688,21.0,0.5685806047212306,-0.49909683484471695,1.0676774395659476
422,V1,d09172021,S5lJ6,final_decisions,4.0,0.0,134.0,1.0,1.0,38.0,23.0,Krasa1.jpg,Rohlb1.jpg,36.0,33.0,1.0,38.0,23.0,1.0,0.614,-0.8250659292897399,3.0,-0.4482550520082432,-0.6007804005176643,0.15252534850942112
423,V1,d09172021,S5lJ6,final_decisions,4.0,0.0,135.0,1.0,1.0,30.0,23.0,Kraa1n.jpg,Rohlb1.jpg,31.0,33.0,1.0,30.0,23.0,1.0,0.518,-1.1245504633270094,-2.0,-0.7024639661906117,-0.6007804005176643,-0.10168356567294734
424,V1,d09172021,S5lJ6,final_decisions,4.0,0.0,136.0,1.0,1.0,12.0,64.0,Klie1n.jpg,Vincb1.jpg,59.0,40.0,1.0,12.0,64.0,1.0,1.009,0.40718814305110856,19.0,0.7211059532306517,-0.24488792066234846,0.9659938738930002
425,V1,d09172021,S5lJ6,final_decisions,4.0,0.0,137.0,0.0,0.0,15.0,7.0,Lassc1.jpg,Macb1n.jpg,35.0,46.0,1.0,15.0,7.0,0.0,0.636,-0.7564340569061989,-11.0,-0.49909683484471695,0.060162776356493704,-0.5592596112012107
426,V1,d09172021,S5lJ6,final_decisions,4.0,0.0,138.0,0.0,0.0,29.0,55.0,Klinb1.jpg,Clia1n.jpg,60.0,56.0,1.0,29.0,55.0,0.0,1.758,2.7437914346543892,4.0,0.7719477360671254,0.5685806047212306,0.2033671313458948
427,V1,d09172021,S5lJ6,final_decisions,4.0,1.0,139.0,1.0,1.0,57.0,63.0,Lassa1.jpg,Lewia1.jpg,58.0,37.0,1.0,57.0,63.0,1.0,0.663,-0.6722040317082167,21.0,0.6702641703941781,-0.39741326917176956,1.0676774395659476
428,V1,d09172021,S5lJ6,final_decisions,4.0,1.0,140.0,1.0,1.0,57.0,66.0,Lassa1.jpg,Vinca1.jpg,58.0,44.0,1.0,57.0,66.0,1.0,0.542,-1.0496793298176919,14.0,0.6702641703941781,-0.041520789316453685,0.7117849597106317
429,V1,d09172021,S5lJ6,final_decisions,4.0,1.0,141.0,0.0,0.0,19.0,4.0,Picc1n.jpg,Krasb1.jpg,33.0,32.0,1.0,19.0,4.0,0.0,0.868,-0.03267976631613081,1.0,-0.6007804005176643,-0.651622183354138,0.05084178283647367
430,V1,d09172021,S5lJ6,final_decisions,4.0,0.0,142.0,0.0,1.0,7.0,29.0,Macb1n.jpg,Klinb1.jpg,46.0,60.0,1.0,7.0,29.0,1.0,0.883,0.014114692127192605,-14.0,0.060162776356493704,0.7719477360671254,-0.7117849597106317
431,V1,d09172021,S5lJ6,final_decisions,4.0,1.0,143.0,0.0,0.0,19.0,33.0,Picc1n.jpg,Kline1.jpg,33.0,55.0,0.0,33.0,19.0,1.0,0.878,-0.0014834606872485322,-22.0,-0.6007804005176643,0.517738821884757,-1.1185192224024214
432,V1,d09172021,IDAjV,final_decisions,1.0,0.0,0.0,0.0,1.0,35.0,55.0,Gusa1n.jpg,Clia1n.jpg,55.0,53.0,,,,,,,2.0,0.11717735750292778,-0.08086888053019015,0.19804623803311794
433,V1,d09172021,IDAjV,final_decisions,1.0,0.0,1.0,1.0,0.0,11.0,34.0,Clifa1.jpg,Lasb1n.jpg,61.0,46.0,0.0,34.0,11.0,1.0,0.792,0.024900309198223596,15.0,0.7113160716022816,-0.7740307136461029,1.4853467852483844
434,V1,d09172021,IDAjV,final_decisions,1.0,0.0,2.0,0.0,1.0,33.0,55.0,Kline1.jpg,Clia1n.jpg,53.0,53.0,1.0,33.0,55.0,1.0,0.837,0.17852781609234966,0.0,-0.08086888053019015,-0.08086888053019015,0.0
435,V1,d09172021,IDAjV,final_decisions,1.0,0.0,3.0,0.0,0.0,69.0,35.0,Picad1.jpg,Gusa1n.jpg,54.0,55.0,0.0,35.0,69.0,1.0,1.011,0.7725541760829712,-1.0,0.018154238486368816,0.11717735750292778,-0.09902311901655897
436,V1,d09172021,IDAjV,final_decisions,1.0,0.0,4.0,0.0,0.0,56.0,35.0,Clib1n.jpg,Gusa1n.jpg,51.0,55.0,0.0,35.0,56.0,1.0,0.749,-0.12189930850060834,-4.0,-0.2789151185633081,0.11717735750292778,-0.3960924760662359
437,V1,d09172021,IDAjV,final_decisions,1.0,1.0,5.0,1.0,0.0,48.0,62.0,Maca1n.jpg,Mona1n.jpg,57.0,59.0,0.0,62.0,48.0,1.0,0.865,0.2741182648264728,-2.0,0.31522359553604573,0.5132698335691637,-0.19804623803311794
438,V1,d09172021,IDAjV,final_decisions,1.0,1.0,6.0,1.0,0.0,8.0,65.0,Picd1n.jpg,Roha1n.jpg,60.0,57.0,0.0,65.0,8.0,1.0,0.682,-0.350633596542974,3.0,0.6122929525857226,0.31522359553604573,0.29706935704967685
439,V1,d09172021,IDAjV,final_decisions,1.0,0.0,7.0,0.0,1.0,57.0,55.0,Lassa1.jpg,Clia1n.jpg,54.0,53.0,1.0,57.0,55.0,1.0,1.329,1.8581885581347974,1.0,0.018154238486368816,-0.08086888053019015,0.09902311901655897
440,V1,d09172021,IDAjV,final_decisions,1.0,1.0,8.0,0.0,1.0,46.0,52.0,Lewb1n.jpg,Dekoa1.jpg,46.0,60.0,1.0,46.0,52.0,1.0,1.528,2.5375635330666007,-14.0,-0.7740307136461029,0.6122929525857226,-1.3863236662318255
441,V1,d09172021,IDAjV,final_decisions,1.0,0.0,9.0,1.0,0.0,60.0,25.0,Kupc1n.jpg,Dekob1.jpg,58.0,55.0,0.0,25.0,60.0,1.0,0.961,0.6018569462006088,3.0,0.4142467145526047,0.11717735750292778,0.2970693570496769
442,V1,d09172021,IDAjV,final_decisions,1.0,1.0,10.0,1.0,1.0,7.0,8.0,Macb1n.jpg,Picd1n.jpg,60.0,60.0,1.0,7.0,8.0,1.0,1.056,0.926181682977098,0.0,0.6122929525857226,0.6122929525857226,0.0
443,V1,d09172021,IDAjV,final_decisions,1.0,1.0,11.0,0.0,0.0,44.0,5.0,Mackb1.jpg,Pica1n.jpg,53.0,51.0,1.0,44.0,5.0,0.0,1.61,2.8175069900736753,2.0,-0.08086888053019015,-0.2789151185633081,0.19804623803311794
444,V1,d09172021,IDAjV,final_decisions,1.0,0.0,12.0,1.0,1.0,12.0,60.0,Klie1n.jpg,Kupc1n.jpg,56.0,58.0,1.0,12.0,60.0,1.0,0.836,0.17511387149470242,-2.0,0.21620047651948676,0.4142467145526047,-0.19804623803311794
445,V1,d09172021,IDAjV,final_decisions,1.0,0.0,13.0,1.0,1.0,34.0,60.0,Lasb1n.jpg,Kupc1n.jpg,46.0,58.0,1.0,34.0,60.0,1.0,0.755,-0.10141564091472483,-12.0,-0.7740307136461029,0.4142467145526047,-1.1882774281987076
446,V1,d09172021,IDAjV,final_decisions,1.0,1.0,14.0,1.0,1.0,62.0,8.0,Mona1n.jpg,Picd1n.jpg,59.0,60.0,1.0,62.0,8.0,1.0,0.591,-0.6613025549288741,-1.0,0.5132698335691637,0.6122929525857226,-0.09902311901655891
447,V1,d09172021,IDAjV,final_decisions,1.0,0.0,15.0,1.0,1.0,12.0,54.0,Klie1n.jpg,Rohla1.jpg,56.0,60.0,1.0,12.0,54.0,1.0,0.737,-0.1628666436723754,-4.0,0.21620047651948676,0.6122929525857226,-0.3960924760662358
448,V1,d09172021,IDAjV,final_decisions,1.0,1.0,16.0,0.0,0.0,67.0,5.0,Picab1.jpg,Pica1n.jpg,58.0,51.0,1.0,67.0,5.0,0.0,0.626,-0.5418144940112203,7.0,0.4142467145526047,-0.2789151185633081,0.6931618331159128
449,V1,d09172021,IDAjV,final_decisions,1.0,1.0,17.0,0.0,0.0,44.0,29.0,Mackb1.jpg,Klinb1.jpg,53.0,56.0,1.0,44.0,29.0,0.0,0.6,-0.6305770535500489,-3.0,-0.08086888053019015,0.21620047651948676,-0.2970693570496769
450,V1,d09172021,IDAjV,final_decisions,1.0,0.0,18.0,0.0,1.0,57.0,56.0,Lassa1.jpg,Clib1n.jpg,54.0,51.0,1.0,57.0,56.0,1.0,0.788,0.011244530807634578,3.0,0.018154238486368816,-0.2789151185633081,0.2970693570496769
451,V1,d09172021,IDAjV,final_decisions,1.0,1.0,19.0,1.0,1.0,62.0,16.0,Mona1n.jpg,Vincc1.jpg,59.0,48.0,1.0,62.0,16.0,1.0,0.76,-0.08434591792648855,11.0,0.5132698335691637,-0.5759844756129849,1.0892543091821487
452,V1,d09172021,IDAjV,final_decisions,1.0,1.0,20.0,1.0,1.0,65.0,16.0,Roha1n.jpg,Vincc1.jpg,57.0,48.0,1.0,65.0,16.0,1.0,1.256,1.6089706025065482,9.0,0.31522359553604573,-0.5759844756129849,0.8912080711490307
453,V1,d09172021,IDAjV,final_decisions,1.0,1.0,21.0,0.0,1.0,46.0,67.0,Lewb1n.jpg,Picab1.jpg,46.0,58.0,1.0,46.0,67.0,1.0,1.199,1.414375760440655,-12.0,-0.7740307136461029,0.4142467145526047,-1.1882774281987076
454,V1,d09172021,IDAjV,final_decisions,1.0,1.0,22.0,1.0,1.0,7.0,16.0,Macb1n.jpg,Vincc1.jpg,60.0,48.0,1.0,7.0,16.0,1.0,0.624,-0.5486423832065148,12.0,0.6122929525857226,-0.5759844756129849,1.1882774281987074
455,V1,d09172021,IDAjV,final_decisions,1.0,1.0,23.0,0.0,0.0,52.0,29.0,Dekoa1.jpg,Klinb1.jpg,60.0,56.0,1.0,52.0,29.0,0.0,1.132,1.1856414723982887,4.0,0.6122929525857226,0.21620047651948676,0.3960924760662358
456,V1,d09172021,IDAjV,final_decisions,1.0,1.0,24.0,0.0,1.0,46.0,44.0,Lewb1n.jpg,Mackb1.jpg,46.0,53.0,0.0,44.0,46.0,0.0,0.939,0.5267501650523693,-7.0,-0.7740307136461029,-0.08086888053019015,-0.6931618331159127
457,V1,d09172021,IDAjV,final_decisions,1.0,1.0,25.0,1.0,0.0,48.0,7.0,Maca1n.jpg,Macb1n.jpg,57.0,60.0,0.0,7.0,48.0,1.0,0.737,-0.1628666436723754,-3.0,0.31522359553604573,0.6122929525857226,-0.29706935704967685
458,V1,d09172021,IDAjV,final_decisions,1.0,0.0,26.0,1.0,1.0,25.0,11.0,Dekob1.jpg,Clifa1.jpg,55.0,61.0,1.0,25.0,11.0,1.0,0.988,0.6940334503370847,-6.0,0.11717735750292778,0.7113160716022816,-0.5941387140993538
459,V1,d09172021,IDAjV,final_decisions,1.0,1.0,27.0,0.0,1.0,29.0,67.0,Klinb1.jpg,Picab1.jpg,56.0,58.0,0.0,67.0,29.0,0.0,1.733,3.2374221755842876,-2.0,0.21620047651948676,0.4142467145526047,-0.19804623803311794
460,V1,d09172021,IDAjV,final_decisions,1.0,0.0,28.0,1.0,0.0,54.0,25.0,Rohla1.jpg,Dekob1.jpg,60.0,55.0,1.0,54.0,25.0,0.0,0.597,-0.6408188873429906,5.0,0.6122929525857226,0.11717735750292778,0.4951155950827948
461,V1,d09172021,IDAjV,final_decisions,1.0,0.0,29.0,0.0,1.0,33.0,56.0,Kline1.jpg,Clib1n.jpg,53.0,51.0,1.0,33.0,56.0,1.0,0.72,-0.22090370183237873,2.0,-0.08086888053019015,-0.2789151185633081,0.19804623803311794
462,V1,d09172021,IDAjV,final_decisions,1.0,0.0,30.0,0.0,0.0,69.0,33.0,Picad1.jpg,Kline1.jpg,54.0,53.0,0.0,33.0,69.0,1.0,0.874,0.3048437662052981,1.0,0.018154238486368816,-0.08086888053019015,0.09902311901655897
463,V1,d09172021,IDAjV,final_decisions,1.0,0.0,31.0,1.0,1.0,34.0,54.0,Lasb1n.jpg,Rohla1.jpg,46.0,60.0,1.0,34.0,54.0,1.0,1.136,1.1992972507888775,-14.0,-0.7740307136461029,0.6122929525857226,-1.3863236662318255
464,V1,d09172021,IDAjV,final_decisions,1.0,1.0,32.0,0.0,1.0,5.0,52.0,Pica1n.jpg,Dekoa1.jpg,51.0,60.0,0.0,52.0,5.0,0.0,1.213,1.4621709848077167,-9.0,-0.2789151185633081,0.6122929525857226,-0.8912080711490307
465,V1,d09172021,IDAjV,final_decisions,1.0,0.0,33.0,0.0,0.0,69.0,57.0,Picad1.jpg,Lassa1.jpg,54.0,54.0,0.0,57.0,69.0,1.0,0.966,0.6189266691888451,0.0,0.018154238486368816,0.018154238486368816,0.0
466,V1,d09172021,IDAjV,final_decisions,1.0,1.0,34.0,1.0,0.0,48.0,65.0,Maca1n.jpg,Roha1n.jpg,57.0,57.0,0.0,65.0,48.0,1.0,0.814,0.10000709034646281,0.0,0.31522359553604573,0.31522359553604573,0.0
467,V1,d09172021,IDAjV,final_decisions,1.0,0.0,35.0,1.0,0.0,11.0,12.0,Clifa1.jpg,Klie1n.jpg,61.0,56.0,0.0,12.0,11.0,1.0,0.621,-0.5588842169994566,5.0,0.7113160716022816,0.21620047651948676,0.49511559508279485
468,V1,d09172021,IDAjV,final_decisions,2.0,0.0,36.0,1.0,1.0,34.0,54.0,Lasb1n.jpg,Rohla1.jpg,46.0,60.0,1.0,34.0,54.0,1.0,0.796,0.03855608758881261,-14.0,-0.7740307136461029,0.6122929525857226,-1.3863236662318255
469,V1,d09172021,IDAjV,final_decisions,2.0,1.0,37.0,0.0,0.0,67.0,29.0,Picab1.jpg,Klinb1.jpg,58.0,56.0,0.0,29.0,67.0,1.0,2.398,5.5076953330197105,2.0,0.4142467145526047,0.21620047651948676,0.19804623803311794
470,V1,d09172021,IDAjV,final_decisions,2.0,1.0,38.0,1.0,0.0,48.0,62.0,Maca1n.jpg,Mona1n.jpg,57.0,59.0,0.0,62.0,48.0,1.0,0.542,-0.8285858402135893,-2.0,0.31522359553604573,0.5132698335691637,-0.19804623803311794
471,V1,d09172021,IDAjV,final_decisions,2.0,0.0,39.0,1.0,0.0,11.0,34.0,Clifa1.jpg,Lasb1n.jpg,61.0,46.0,0.0,34.0,11.0,1.0,0.505,-0.9549017903265377,15.0,0.7113160716022816,-0.7740307136461029,1.4853467852483844
472,V1,d09172021,IDAjV,final_decisions,2.0,0.0,40.0,0.0,0.0,55.0,35.0,Clia1n.jpg,Gusa1n.jpg,53.0,55.0,0.0,35.0,55.0,1.0,1.026,0.8237633450476803,-2.0,-0.08086888053019015,0.11717735750292778,-0.19804623803311794
473,V1,d09172021,IDAjV,final_decisions,2.0,1.0,41.0,0.0,1.0,46.0,52.0,Lewb1n.jpg,Dekoa1.jpg,46.0,60.0,1.0,46.0,52.0,1.0,0.646,-0.47353560205827516,-14.0,-0.7740307136461029,0.6122929525857226,-1.3863236662318255
474,V1,d09172021,IDAjV,final_decisions,2.0,1.0,42.0,1.0,1.0,65.0,48.0,Roha1n.jpg,Maca1n.jpg,57.0,57.0,1.0,65.0,48.0,1.0,0.917,0.45164338390413,0.0,0.31522359553604573,0.31522359553604573,0.0
475,V1,d09172021,IDAjV,final_decisions,2.0,1.0,43.0,0.0,0.0,44.0,29.0,Mackb1.jpg,Klinb1.jpg,53.0,56.0,1.0,44.0,29.0,0.0,1.024,0.8169354558523859,-3.0,-0.08086888053019015,0.21620047651948676,-0.2970693570496769
476,V1,d09172021,IDAjV,final_decisions,2.0,0.0,44.0,0.0,1.0,33.0,69.0,Kline1.jpg,Picad1.jpg,53.0,54.0,0.0,69.0,33.0,0.0,2.072,4.3947493941867055,-1.0,-0.08086888053019015,0.018154238486368816,-0.09902311901655897
477,V1,d09172021,IDAjV,final_decisions,2.0,1.0,45.0,0.0,1.0,46.0,44.0,Lewb1n.jpg,Mackb1.jpg,46.0,53.0,0.0,44.0,46.0,0.0,0.798,0.04538397678410712,-7.0,-0.7740307136461029,-0.08086888053019015,-0.6931618331159127
