,version,group,PID,phase,block,trial,stimulus_left,stimulus_right,painting_left,painting_right,rating_left,rating_right,explain_trial,explain_response,novel_left,left_chosen,chosen_obj,unchosen_obj,rt,zscored_rt,delta_ratings,zcored_rating_left,zcored_rating_right,zscored_delta_ratings
0,V1,d09142021,fX2Ey,interference,1.0,0.0,14.0,7.0,Grib1n.jpg,Macb1n.jpg,65.0,61.0,1.0,,1.0,0.0,7.0,14.0,1.383,0.6285981436405765,4.0,0.5386070918720477,0.34989803778549083,0.18870905408655686
1,V1,d09142021,fX2Ey,interference,1.0,1.0,59.0,34.0,Macka1.jpg,Lasb1n.jpg,56.0,43.0,1.0,,1.0,0.0,34.0,59.0,1.044,-0.23316457765683796,13.0,0.11401172017729468,-0.49929270560401523,0.61330442578131
2,V1,d09142021,fX2Ey,interference,1.0,2.0,62.0,10.0,Mona1n.jpg,Vinb1n.jpg,46.0,45.0,1.0,,0.0,0.0,10.0,62.0,2.234,2.791902202118747,1.0,-0.35776091503909757,-0.4049381785607368,0.0471772635216392
3,V1,d09142021,fX2Ey,interference,1.0,3.0,47.0,57.0,Vina1n.jpg,Lassa1.jpg,64.0,63.0,0.0,,0.0,1.0,47.0,57.0,1.549,1.0505822490546497,1.0,0.4914298283504085,0.44425256482876924,0.04717726352163926
4,V1,d09142021,fX2Ey,interference,1.0,4.0,29.0,3.0,Klinb1.jpg,Klib1n.jpg,46.0,54.0,0.0,,0.0,0.0,3.0,29.0,1.673,1.3657992916531143,-8.0,-0.35776091503909757,0.019657193134016232,-0.37741810817311383
5,V1,d09142021,fX2Ey,interference,1.0,5.0,16.0,53.0,Vincc1.jpg,Macc1n.jpg,41.0,64.0,0.0,,1.0,0.0,53.0,16.0,1.292,0.3972695075400907,-23.0,-0.5936472326472937,0.4914298283504085,-1.085077060997702
6,V1,d09142021,fX2Ey,interference,2.0,6.0,62.0,10.0,Mona1n.jpg,Vinb1n.jpg,46.0,45.0,0.0,,0.0,0.0,10.0,62.0,0.913,-0.5661761307245704,1.0,-0.35776091503909757,-0.4049381785607368,0.0471772635216392
7,V1,d09142021,fX2Ey,interference,2.0,7.0,29.0,3.0,Klinb1.jpg,Klib1n.jpg,46.0,54.0,1.0,,0.0,0.0,3.0,29.0,0.857,-0.7085322144787157,-8.0,-0.35776091503909757,0.019657193134016232,-0.37741810817311383
8,V1,d09142021,fX2Ey,interference,2.0,8.0,47.0,57.0,Vina1n.jpg,Lassa1.jpg,64.0,63.0,1.0,,0.0,1.0,47.0,57.0,1.161,0.06425795447235821,1.0,0.4914298283504085,0.44425256482876924,0.04717726352163926
9,V1,d09142021,fX2Ey,interference,2.0,9.0,14.0,7.0,Grib1n.jpg,Macb1n.jpg,65.0,61.0,0.0,,1.0,0.0,7.0,14.0,0.993,-0.3628102967900774,4.0,0.5386070918720477,0.34989803778549083,0.18870905408655686
10,V1,d09142021,fX2Ey,interference,2.0,10.0,16.0,53.0,Vincc1.jpg,Macc1n.jpg,41.0,64.0,1.0,,1.0,0.0,53.0,16.0,1.356,0.5599621746876854,-23.0,-0.5936472326472937,0.4914298283504085,-1.085077060997702
11,V1,d09142021,fX2Ey,interference,2.0,11.0,59.0,34.0,Macka1.jpg,Lasb1n.jpg,56.0,43.0,0.0,,1.0,0.0,34.0,59.0,1.021,-0.29163225491300504,13.0,0.11401172017729468,-0.49929270560401523,0.61330442578131
12,V1,d09142021,fX2Ey,interference,3.0,12.0,16.0,53.0,Vincc1.jpg,Macc1n.jpg,41.0,64.0,0.0,,1.0,0.0,53.0,16.0,0.951,-0.4695773596056864,-23.0,-0.5936472326472937,0.4914298283504085,-1.085077060997702
13,V1,d09142021,fX2Ey,interference,3.0,13.0,62.0,10.0,Mona1n.jpg,Vinb1n.jpg,46.0,45.0,0.0,,0.0,0.0,10.0,62.0,0.9,-0.5992230787389257,1.0,-0.35776091503909757,-0.4049381785607368,0.0471772635216392
14,V1,d09142021,fX2Ey,interference,3.0,14.0,29.0,3.0,Klinb1.jpg,Klib1n.jpg,46.0,54.0,0.0,,0.0,0.0,3.0,29.0,0.924,-0.5382133285585776,-8.0,-0.35776091503909757,0.019657193134016232,-0.37741810817311383
15,V1,d09142021,fX2Ey,interference,3.0,15.0,47.0,57.0,Vina1n.jpg,Lassa1.jpg,64.0,63.0,0.0,,0.0,1.0,47.0,57.0,0.868,-0.6805694123127229,1.0,0.4914298283504085,0.44425256482876924,0.04717726352163926
16,V1,d09142021,fX2Ey,interference,3.0,16.0,59.0,34.0,Macka1.jpg,Lasb1n.jpg,56.0,43.0,0.0,,1.0,0.0,34.0,59.0,0.607,-1.3440504455240068,13.0,0.11401172017729468,-0.49929270560401523,0.61330442578131
17,V1,d09142021,fX2Ey,interference,3.0,17.0,14.0,7.0,Grib1n.jpg,Macb1n.jpg,65.0,61.0,0.0,,1.0,0.0,7.0,14.0,0.717,-1.0644224238640787,4.0,0.5386070918720477,0.34989803778549083,0.18870905408655686
18,V1,d09142021,CDRCj,interference,1.0,0.0,12.0,52.0,Klie1n.jpg,Dekoa1.jpg,62.0,66.0,0.0,,0.0,1.0,12.0,52.0,1.145,-0.4534428204855516,-4.0,0.28471903889730255,0.47400593456309925,-0.1892868956657967
19,V1,d09142021,CDRCj,interference,1.0,1.0,8.0,13.0,Picd1n.jpg,Kupka1.jpg,64.0,38.0,0.0,,0.0,1.0,8.0,13.0,1.042,-0.5287391025437883,26.0,0.3793624867302009,-0.8510023350974778,1.2303648218276786
20,V1,d09142021,CDRCj,interference,1.0,2.0,17.0,39.0,Picaa1.jpg,Kupb1n.jpg,39.0,61.0,1.0,,1.0,0.0,39.0,17.0,6.177,3.2251095223983994,-22.0,-0.8036806111810286,0.23739731498085334,-1.0410779261618819
21,V1,d09142021,CDRCj,interference,1.0,3.0,55.0,2.0,Clia1n.jpg,Dekb1n.jpg,57.0,46.0,1.0,,0.0,1.0,55.0,2.0,3.792,1.4815985252246666,11.0,0.04811041931505662,-0.47242854376588433,0.5205389630809409
22,V1,d09142021,CDRCj,interference,1.0,4.0,61.0,44.0,Grigb1.jpg,Mackb1.jpg,58.0,42.0,0.0,,1.0,0.0,44.0,61.0,1.835,0.05096916611816977,16.0,0.0954321432315058,-0.6617154394316811,0.7571475826631869
23,V1,d09142021,CDRCj,interference,1.0,5.0,0.0,5.0,Monb1n.jpg,Pica1n.jpg,38.0,57.0,1.0,,1.0,0.0,5.0,0.0,1.721,-0.03236846645114064,-19.0,-0.8510023350974778,0.04811041931505662,-0.8991127544125345
24,V1,d09142021,CDRCj,interference,2.0,6.0,8.0,13.0,Picd1n.jpg,Kupka1.jpg,64.0,38.0,1.0,,0.0,1.0,8.0,13.0,1.311,-0.3320915309548013,26.0,0.3793624867302009,-0.8510023350974778,1.2303648218276786
25,V1,d09142021,CDRCj,interference,2.0,7.0,17.0,39.0,Picaa1.jpg,Kupb1n.jpg,39.0,61.0,0.0,,1.0,0.0,39.0,17.0,2.504,0.5400294835643866,-22.0,-0.8036806111810286,0.23739731498085334,-1.0410779261618819
26,V1,d09142021,CDRCj,interference,2.0,8.0,55.0,2.0,Clia1n.jpg,Dekb1n.jpg,57.0,46.0,0.0,,0.0,1.0,55.0,2.0,2.765,0.7308288002362292,11.0,0.04811041931505662,-0.47242854376588433,0.5205389630809409
27,V1,d09142021,CDRCj,interference,2.0,9.0,12.0,52.0,Klie1n.jpg,Dekoa1.jpg,62.0,66.0,1.0,,0.0,1.0,12.0,52.0,1.843,0.05681742103531437,-4.0,0.28471903889730255,0.47400593456309925,-0.1892868956657967
28,V1,d09142021,CDRCj,interference,2.0,10.0,0.0,5.0,Monb1n.jpg,Pica1n.jpg,38.0,57.0,0.0,,1.0,0.0,5.0,0.0,1.391,-0.2736089817833553,-19.0,-0.8510023350974778,0.04811041931505662,-0.8991127544125345
29,V1,d09142021,CDRCj,interference,2.0,11.0,61.0,44.0,Grigb1.jpg,Mackb1.jpg,58.0,42.0,1.0,,1.0,0.0,44.0,61.0,0.912,-0.623773244947388,16.0,0.0954321432315058,-0.6617154394316811,0.7571475826631869
30,V1,d09142021,CDRCj,interference,3.0,12.0,61.0,44.0,Grigb1.jpg,Mackb1.jpg,58.0,42.0,0.0,,1.0,0.0,44.0,61.0,0.977,-0.5762561737455881,16.0,0.0954321432315058,-0.6617154394316811,0.7571475826631869
31,V1,d09142021,CDRCj,interference,3.0,13.0,12.0,52.0,Klie1n.jpg,Dekoa1.jpg,62.0,66.0,0.0,,0.0,1.0,12.0,52.0,1.117,-0.4739117126955577,-4.0,0.28471903889730255,0.47400593456309925,-0.1892868956657967
32,V1,d09142021,CDRCj,interference,3.0,14.0,0.0,5.0,Monb1n.jpg,Pica1n.jpg,38.0,57.0,0.0,,1.0,0.0,5.0,0.0,0.898,-0.6340076910523911,-19.0,-0.8510023350974778,0.04811041931505662,-0.8991127544125345
33,V1,d09142021,CDRCj,interference,3.0,15.0,17.0,39.0,Picaa1.jpg,Kupb1n.jpg,39.0,61.0,0.0,,1.0,0.0,39.0,17.0,0.826,-0.6866419853066924,-22.0,-0.8036806111810286,0.23739731498085334,-1.0410779261618819
34,V1,d09142021,CDRCj,interference,3.0,16.0,55.0,2.0,Clia1n.jpg,Dekb1n.jpg,57.0,46.0,0.0,,0.0,1.0,55.0,2.0,0.746,-0.7451245344781384,11.0,0.04811041931505662,-0.47242854376588433,0.5205389630809409
35,V1,d09142021,CDRCj,interference,3.0,17.0,8.0,13.0,Picd1n.jpg,Kupka1.jpg,64.0,38.0,0.0,,0.0,1.0,8.0,13.0,0.773,-0.7253866741327754,26.0,0.3793624867302009,-0.8510023350974778,1.2303648218276786
36,V1,d09172021,S5lJ6,interference,1.0,0.0,66.0,42.0,Vinca1.jpg,Mackc1.jpg,44.0,32.0,1.0,,0.0,1.0,66.0,42.0,0.904,-1.0272222008225202,12.0,-0.041520789316453685,-0.651622183354138,0.6101013940376844
37,V1,d09172021,S5lJ6,interference,1.0,1.0,35.0,57.0,Gusa1n.jpg,Lassa1.jpg,56.0,58.0,0.0,,1.0,0.0,57.0,35.0,2.359,2.1400664075530145,-2.0,0.5685806047212306,0.6702641703941781,-0.10168356567294745
38,V1,d09172021,S5lJ6,interference,1.0,2.0,44.0,6.0,Mackb1.jpg,Gusc1n.jpg,31.0,53.0,0.0,,1.0,0.0,6.0,44.0,0.96,-0.9053196839365892,-22.0,-0.7024639661906117,0.41605525621180955,-1.1185192224024212
39,V1,d09172021,S5lJ6,interference,1.0,3.0,43.0,46.0,Clifb1.jpg,Lewb1n.jpg,35.0,53.0,0.0,,0.0,1.0,43.0,46.0,2.232,1.8636089139009924,-18.0,-0.49909683484471695,0.41605525621180955,-0.9151520910565265
40,V1,d09172021,S5lJ6,interference,1.0,4.0,60.0,63.0,Kupc1n.jpg,Lewia1.jpg,33.0,37.0,1.0,,1.0,0.0,63.0,60.0,1.483,0.23316275055166175,-4.0,-0.6007804005176643,-0.39741326917176956,-0.2033671313458948
41,V1,d09172021,S5lJ6,interference,1.0,5.0,53.0,21.0,Macc1n.jpg,Kupkc1.jpg,38.0,31.0,1.0,,0.0,1.0,53.0,21.0,1.124,-0.5483194559135045,7.0,-0.34657148633529583,-0.7024639661906117,0.35589247985531586
42,V1,d09172021,S5lJ6,interference,2.0,6.0,35.0,57.0,Gusa1n.jpg,Lassa1.jpg,56.0,58.0,1.0,,1.0,0.0,57.0,35.0,2.127,1.6350416947398703,-2.0,0.5685806047212306,0.6702641703941781,-0.10168356567294745
43,V1,d09172021,S5lJ6,interference,2.0,7.0,53.0,21.0,Macc1n.jpg,Kupkc1.jpg,38.0,31.0,0.0,,0.0,1.0,53.0,21.0,1.562,0.4051323725871718,7.0,-0.34657148633529583,-0.7024639661906117,0.35589247985531586
44,V1,d09172021,S5lJ6,interference,2.0,8.0,43.0,46.0,Clifb1.jpg,Lewb1n.jpg,35.0,53.0,1.0,,0.0,1.0,43.0,46.0,0.632,-1.6193201399827577,-18.0,-0.49909683484471695,0.41605525621180955,-0.9151520910565265
45,V1,d09172021,S5lJ6,interference,2.0,9.0,60.0,63.0,Kupc1n.jpg,Lewia1.jpg,33.0,37.0,0.0,,1.0,0.0,63.0,60.0,1.367,-0.01934960585491033,-4.0,-0.6007804005176643,-0.39741326917176956,-0.2033671313458948
46,V1,d09172021,S5lJ6,interference,2.0,10.0,66.0,42.0,Vinca1.jpg,Mackc1.jpg,44.0,32.0,0.0,,0.0,1.0,66.0,42.0,1.41,0.07425411246821528,12.0,-0.041520789316453685,-0.651622183354138,0.6101013940376844
47,V1,d09172021,S5lJ6,interference,2.0,11.0,44.0,6.0,Mackb1.jpg,Gusc1n.jpg,31.0,53.0,1.0,,1.0,0.0,6.0,44.0,1.271,-0.2283253490879355,-22.0,-0.7024639661906117,0.41605525621180955,-1.1185192224024212
48,V1,d09172021,S5lJ6,interference,3.0,12.0,66.0,42.0,Vinca1.jpg,Mackc1.jpg,44.0,32.0,0.0,,0.0,1.0,66.0,42.0,1.391,0.032894329953345965,12.0,-0.041520789316453685,-0.651622183354138,0.6101013940376844
49,V1,d09172021,S5lJ6,interference,3.0,13.0,60.0,63.0,Kupc1n.jpg,Lewia1.jpg,33.0,37.0,0.0,,1.0,0.0,63.0,60.0,1.36,-0.034587420465651504,-4.0,-0.6007804005176643,-0.39741326917176956,-0.2033671313458948
50,V1,d09172021,S5lJ6,interference,3.0,14.0,53.0,21.0,Macc1n.jpg,Kupkc1.jpg,38.0,31.0,0.0,,0.0,1.0,53.0,21.0,1.039,-0.7333500619010792,7.0,-0.34657148633529583,-0.7024639661906117,0.35589247985531586
51,V1,d09172021,S5lJ6,interference,3.0,15.0,35.0,57.0,Gusa1n.jpg,Lassa1.jpg,56.0,58.0,0.0,,1.0,0.0,57.0,35.0,1.247,-0.2805692848961913,-2.0,0.5685806047212306,0.6702641703941781,-0.10168356567294745
52,V1,d09172021,S5lJ6,interference,3.0,16.0,44.0,6.0,Mackb1.jpg,Gusc1n.jpg,31.0,53.0,0.0,,1.0,0.0,6.0,44.0,1.248,-0.2783924542375142,-22.0,-0.7024639661906117,0.41605525621180955,-1.1185192224024212
53,V1,d09172021,S5lJ6,interference,3.0,17.0,43.0,46.0,Clifb1.jpg,Lewb1n.jpg,35.0,53.0,0.0,,0.0,1.0,43.0,46.0,1.05,-0.7094049246556281,-18.0,-0.49909683484471695,0.41605525621180955,-0.9151520910565265
54,V1,d09172021,IDAjV,interference,1.0,0.0,7.0,3.0,Macb1n.jpg,Klib1n.jpg,60.0,48.0,1.0,,0.0,1.0,7.0,3.0,2.451,0.5340336164698827,12.0,0.6122929525857226,-0.5759844756129849,1.1882774281987074
55,V1,d09172021,IDAjV,interference,1.0,1.0,47.0,48.0,Vina1n.jpg,Maca1n.jpg,52.0,57.0,0.0,,1.0,1.0,47.0,48.0,8.019,3.6708199481277104,-5.0,-0.17989199954674912,0.31522359553604573,-0.49511559508279485
56,V1,d09172021,IDAjV,interference,1.0,2.0,24.0,65.0,Lewa1n.jpg,Roha1n.jpg,48.0,57.0,1.0,,1.0,0.0,65.0,24.0,1.318,-0.10425282637643887,-9.0,-0.5759844756129849,0.31522359553604573,-0.8912080711490307
57,V1,d09172021,IDAjV,interference,1.0,3.0,66.0,8.0,Vinca1.jpg,Picd1n.jpg,53.0,60.0,0.0,,1.0,0.0,8.0,66.0,1.437,-0.03721303229107942,-7.0,-0.08086888053019015,0.6122929525857226,-0.6931618331159127
58,V1,d09172021,IDAjV,interference,1.0,4.0,62.0,10.0,Mona1n.jpg,Vinb1n.jpg,59.0,57.0,1.0,,0.0,1.0,62.0,10.0,1.016,-0.2743874298535696,2.0,0.5132698335691637,0.31522359553604573,0.19804623803311794
59,V1,d09172021,IDAjV,interference,1.0,5.0,16.0,64.0,Vincc1.jpg,Vincb1.jpg,48.0,57.0,0.0,,0.0,1.0,16.0,64.0,3.261,0.9903549039416573,-9.0,-0.5759844756129849,0.31522359553604573,-0.8912080711490307
60,V1,d09172021,IDAjV,interference,2.0,6.0,24.0,65.0,Lewa1n.jpg,Roha1n.jpg,48.0,57.0,0.0,,1.0,0.0,65.0,24.0,0.558,-0.5324061331400791,-9.0,-0.5759844756129849,0.31522359553604573,-0.8912080711490307
61,V1,d09172021,IDAjV,interference,2.0,7.0,62.0,10.0,Mona1n.jpg,Vinb1n.jpg,59.0,57.0,0.0,,0.0,1.0,62.0,10.0,0.894,-0.34311730278141717,2.0,0.5132698335691637,0.31522359553604573,0.19804623803311794
62,V1,d09172021,IDAjV,interference,2.0,8.0,47.0,48.0,Vina1n.jpg,Maca1n.jpg,52.0,57.0,1.0,,1.0,1.0,47.0,48.0,1.084,-0.23607897609050704,-5.0,-0.17989199954674912,0.31522359553604573,-0.49511559508279485
63,V1,d09172021,IDAjV,interference,2.0,9.0,66.0,8.0,Vinca1.jpg,Picd1n.jpg,53.0,60.0,1.0,,1.0,0.0,8.0,66.0,1.188,-0.17748957621758793,-7.0,-0.08086888053019015,0.6122929525857226,-0.6931618331159127
64,V1,d09172021,IDAjV,interference,2.0,10.0,7.0,3.0,Macb1n.jpg,Klib1n.jpg,60.0,48.0,0.0,,0.0,1.0,7.0,3.0,1.319,-0.10368946676227625,12.0,0.6122929525857226,-0.5759844756129849,1.1882774281987074
65,V1,d09172021,IDAjV,interference,2.0,11.0,16.0,64.0,Vincc1.jpg,Vincb1.jpg,48.0,57.0,1.0,,0.0,1.0,16.0,64.0,0.78,-0.4073402987959632,-9.0,-0.5759844756129849,0.31522359553604573,-0.8912080711490307
66,V1,d09172021,IDAjV,interference,3.0,12.0,47.0,48.0,Vina1n.jpg,Maca1n.jpg,52.0,57.0,0.0,,1.0,1.0,47.0,48.0,0.874,-0.35438449506467085,-5.0,-0.17989199954674912,0.31522359553604573,-0.49511559508279485
67,V1,d09172021,IDAjV,interference,3.0,13.0,16.0,64.0,Vincc1.jpg,Vincb1.jpg,48.0,57.0,0.0,,0.0,1.0,16.0,64.0,0.561,-0.5307160542975911,-9.0,-0.5759844756129849,0.31522359553604573,-0.8912080711490307
68,V1,d09172021,IDAjV,interference,3.0,14.0,62.0,10.0,Mona1n.jpg,Vinb1n.jpg,59.0,57.0,0.0,,0.0,1.0,62.0,10.0,0.608,-0.5042381524319449,2.0,0.5132698335691637,0.31522359553604573,0.19804623803311794
69,V1,d09172021,IDAjV,interference,3.0,15.0,66.0,8.0,Vinca1.jpg,Picd1n.jpg,53.0,60.0,0.0,,1.0,0.0,8.0,66.0,0.63,-0.4918442409203659,-7.0,-0.08086888053019015,0.6122929525857226,-0.6931618331159127
70,V1,d09172021,IDAjV,interference,3.0,16.0,24.0,65.0,Lewa1n.jpg,Roha1n.jpg,48.0,57.0,0.0,,1.0,0.0,65.0,24.0,0.545,-0.539729808124194,-9.0,-0.5759844756129849,0.31522359553604573,-0.8912080711490307
71,V1,d09172021,IDAjV,interference,3.0,17.0,7.0,3.0,Macb1n.jpg,Klib1n.jpg,60.0,48.0,0.0,,0.0,1.0,7.0,3.0,0.512,-0.5583206753915626,12.0,0.6122929525857226,-0.5759844756129849,1.1882774281987074
72,V1,d09172021,59tg8,interference,1.0,0.0,44.0,40.0,Mackb1.jpg,Vinc1n.jpg,23.0,20.0,0.0,,0.0,1.0,44.0,40.0,2.0,2.458577298549573,3.0,0.01967587633689824,-0.07604460313990394,0.09572047947680218
73,V1,d09172021,59tg8,interference,1.0,1.0,21.0,16.0,Kupkc1.jpg,Vincc1.jpg,16.0,0.0,1.0,,1.0,1.0,21.0,16.0,1.306,-0.04713760831844184,16.0,-0.2036719091089735,-0.7141811329852518,0.5105092238762783
74,V1,d09172021,59tg8,interference,1.0,2.0,34.0,67.0,Lasb1n.jpg,Picab1.jpg,0.0,0.0,1.0,,0.0,1.0,34.0,67.0,1.905,2.115575978445162,0.0,-0.7141811329852518,-0.7141811329852518,0.0
75,V1,d09172021,59tg8,interference,1.0,3.0,69.0,62.0,Picad1.jpg,Mona1n.jpg,0.0,14.0,0.0,,1.0,0.0,62.0,69.0,1.526,0.7471812382391421,-14.0,-0.7141811329852518,-0.26748556209350827,-0.4466955708917435
76,V1,d09172021,59tg8,interference,1.0,4.0,42.0,47.0,Mackc1.jpg,Vina1n.jpg,0.0,0.0,0.0,,0.0,1.0,42.0,47.0,1.337,0.0647891382419447,0.0,-0.7141811329852518,-0.7141811329852518,0.0
77,V1,d09172021,59tg8,interference,1.0,5.0,2.0,55.0,Dekb1n.jpg,Clia1n.jpg,16.0,20.0,1.0,,1.0,0.0,55.0,2.0,1.619,1.0829614779203025,-4.0,-0.2036719091089735,-0.07604460313990394,-0.12762730596906957
78,V1,d09172021,59tg8,interference,2.0,6.0,34.0,67.0,Lasb1n.jpg,Picab1.jpg,0.0,0.0,0.0,,0.0,1.0,34.0,67.0,1.261,-0.20961191784158456,0.0,-0.7141811329852518,-0.7141811329852518,0.0
79,V1,d09172021,59tg8,interference,2.0,7.0,21.0,16.0,Kupkc1.jpg,Vincc1.jpg,16.0,0.0,0.0,,1.0,1.0,21.0,16.0,1.276,-0.1554538146672034,16.0,-0.2036719091089735,-0.7141811329852518,0.5105092238762783
80,V1,d09172021,59tg8,interference,2.0,8.0,2.0,55.0,Dekb1n.jpg,Clia1n.jpg,16.0,20.0,0.0,,1.0,0.0,55.0,2.0,1.203,-0.4190232501158561,-4.0,-0.2036719091089735,-0.07604460313990394,-0.12762730596906957
81,V1,d09172021,59tg8,interference,2.0,9.0,69.0,62.0,Picad1.jpg,Mona1n.jpg,0.0,14.0,1.0,,1.0,0.0,62.0,69.0,1.344,0.0900629197233228,-14.0,-0.7141811329852518,-0.26748556209350827,-0.4466955708917435
82,V1,d09172021,59tg8,interference,2.0,10.0,44.0,40.0,Mackb1.jpg,Vinc1n.jpg,23.0,20.0,1.0,,0.0,1.0,44.0,40.0,1.117,-0.7295297083156392,3.0,0.01967587633689824,-0.07604460313990394,0.09572047947680218
83,V1,d09172021,59tg8,interference,2.0,11.0,42.0,47.0,Mackc1.jpg,Vina1n.jpg,0.0,0.0,1.0,,0.0,1.0,42.0,47.0,1.132,-0.6753716051412588,0.0,-0.7141811329852518,-0.7141811329852518,0.0
84,V1,d09172021,59tg8,interference,3.0,12.0,21.0,16.0,Kupkc1.jpg,Vincc1.jpg,16.0,0.0,0.0,,1.0,1.0,21.0,16.0,1.19,-0.46596027286698655,16.0,-0.2036719091089735,-0.7141811329852518,0.5105092238762783
85,V1,d09172021,59tg8,interference,3.0,13.0,69.0,62.0,Picad1.jpg,Mona1n.jpg,0.0,14.0,0.0,,1.0,0.0,62.0,69.0,1.143,-0.6356556628133793,-14.0,-0.7141811329852518,-0.26748556209350827,-0.4466955708917435
86,V1,d09172021,59tg8,interference,3.0,14.0,44.0,40.0,Mackb1.jpg,Vinc1n.jpg,23.0,20.0,0.0,,0.0,1.0,44.0,40.0,1.022,-1.0725310284200504,3.0,0.01967587633689824,-0.07604460313990394,0.09572047947680218
87,V1,d09172021,59tg8,interference,3.0,15.0,2.0,55.0,Dekb1n.jpg,Clia1n.jpg,16.0,20.0,0.0,,1.0,0.0,55.0,2.0,1.217,-0.3684756871531007,-4.0,-0.2036719091089735,-0.07604460313990394,-0.12762730596906957
88,V1,d09172021,59tg8,interference,3.0,16.0,34.0,67.0,Lasb1n.jpg,Picab1.jpg,0.0,0.0,0.0,,0.0,1.0,34.0,67.0,1.092,-0.8197932136062734,0.0,-0.7141811329852518,-0.7141811329852518,0.0
89,V1,d09172021,59tg8,interference,3.0,17.0,42.0,47.0,Mackc1.jpg,Vina1n.jpg,0.0,0.0,0.0,,0.0,1.0,42.0,47.0,1.053,-0.9606042818596638,0.0,-0.7141811329852518,-0.7141811329852518,0.0
90,V1,d09172021,VIK7A,interference,1.0,0.0,0.0,14.0,Monb1n.jpg,Grib1n.jpg,63.0,68.0,0.0,,1.0,0.0,14.0,0.0,2.301,0.9708387676465642,-5.0,0.3117009633492988,0.5364853119185048,-0.22478434856920598
91,V1,d09172021,VIK7A,interference,1.0,1.0,57.0,13.0,Lassa1.jpg,Kupka1.jpg,64.0,50.0,1.0,,0.0,1.0,57.0,13.0,2.181,0.8248174781739244,14.0,0.35665783306314,-0.2727383429306367,0.6293961759937767
92,V1,d09172021,VIK7A,interference,1.0,2.0,51.0,66.0,Lewic1.jpg,Vinca1.jpg,59.0,50.0,0.0,,1.0,0.0,66.0,51.0,3.158,2.0136741432969987,9.0,0.13187348449393402,-0.2727383429306367,0.4046118274245707
93,V1,d09172021,VIK7A,interference,1.0,3.0,11.0,64.0,Clifa1.jpg,Vincb1.jpg,37.0,46.0,1.0,,0.0,1.0,11.0,64.0,2.231,0.8856596821208573,-9.0,-0.8571776492105723,-0.45256582178600147,-0.4046118274245708
94,V1,d09172021,VIK7A,interference,1.0,4.0,49.0,32.0,Lewc1n.jpg,Kupkb1.jpg,64.0,50.0,1.0,,1.0,0.0,32.0,49.0,3.045,1.87617076237693,14.0,0.35665783306314,-0.2727383429306367,0.6293961759937767
95,V1,d09172021,VIK7A,interference,1.0,5.0,58.0,16.0,Klinc1.jpg,Vincc1.jpg,64.0,59.0,0.0,,0.0,0.0,16.0,58.0,2.467,1.1728348847503822,5.0,0.35665783306314,0.13187348449393402,0.22478434856920596
96,V1,d09172021,VIK7A,interference,2.0,6.0,49.0,32.0,Lewc1n.jpg,Kupkb1.jpg,64.0,50.0,0.0,,1.0,0.0,32.0,49.0,1.232,-0.32996755273886785,14.0,0.35665783306314,-0.2727383429306367,0.6293961759937767
97,V1,d09172021,VIK7A,interference,2.0,7.0,0.0,14.0,Monb1n.jpg,Grib1n.jpg,63.0,68.0,1.0,,1.0,0.0,14.0,0.0,1.303,-0.24357162313422276,-5.0,0.3117009633492988,0.5364853119185048,-0.22478434856920598
98,V1,d09172021,VIK7A,interference,2.0,8.0,57.0,13.0,Lassa1.jpg,Kupka1.jpg,64.0,50.0,0.0,,0.0,1.0,57.0,13.0,0.833,-0.8154883402353947,14.0,0.35665783306314,-0.2727383429306367,0.6293961759937767
99,V1,d09172021,VIK7A,interference,2.0,9.0,58.0,16.0,Klinc1.jpg,Vincc1.jpg,64.0,59.0,1.0,,0.0,0.0,16.0,58.0,1.102,-0.488157283000894,5.0,0.35665783306314,0.13187348449393402,0.22478434856920596
100,V1,d09172021,VIK7A,interference,2.0,10.0,11.0,64.0,Clifa1.jpg,Vincb1.jpg,37.0,46.0,0.0,,0.0,1.0,11.0,64.0,1.026,-0.5806374330002325,-9.0,-0.8571776492105723,-0.45256582178600147,-0.4046118274245708
101,V1,d09172021,VIK7A,interference,2.0,11.0,51.0,66.0,Lewic1.jpg,Vinca1.jpg,59.0,50.0,1.0,,1.0,0.0,66.0,51.0,0.901,-0.7327429428675656,9.0,0.13187348449393402,-0.2727383429306367,0.4046118274245707
102,V1,d09172021,VIK7A,interference,3.0,12.0,11.0,64.0,Clifa1.jpg,Vincb1.jpg,37.0,46.0,0.0,,0.0,1.0,11.0,64.0,1.191,-0.379858159975353,-9.0,-0.8571776492105723,-0.45256582178600147,-0.4046118274245708
103,V1,d09172021,VIK7A,interference,3.0,13.0,57.0,13.0,Lassa1.jpg,Kupka1.jpg,64.0,50.0,0.0,,0.0,1.0,57.0,13.0,0.699,-0.9785454468131758,14.0,0.35665783306314,-0.2727383429306367,0.6293961759937767
104,V1,d09172021,VIK7A,interference,3.0,14.0,58.0,16.0,Klinc1.jpg,Vincc1.jpg,64.0,59.0,0.0,,0.0,0.0,16.0,58.0,0.782,-0.8775473882612665,5.0,0.35665783306314,0.13187348449393402,0.22478434856920596
105,V1,d09172021,VIK7A,interference,3.0,15.0,0.0,14.0,Monb1n.jpg,Grib1n.jpg,63.0,68.0,0.0,,1.0,0.0,14.0,0.0,0.9,-0.7339597869465042,-5.0,0.3117009633492988,0.5364853119185048,-0.22478434856920598
106,V1,d09172021,VIK7A,interference,3.0,16.0,51.0,66.0,Lewic1.jpg,Vinca1.jpg,59.0,50.0,0.0,,1.0,0.0,66.0,51.0,0.748,-0.9189200869451812,9.0,0.13187348449393402,-0.2727383429306367,0.4046118274245707
107,V1,d09172021,VIK7A,interference,3.0,17.0,49.0,32.0,Lewc1n.jpg,Kupkb1.jpg,64.0,50.0,0.0,,1.0,0.0,32.0,49.0,0.957,-0.6645996744470004,14.0,0.35665783306314,-0.2727383429306367,0.6293961759937767
108,V1,d09142021,eGaxL,interference,1.0,0.0,13.0,47.0,Kupka1.jpg,Vina1n.jpg,13.0,9.0,1.0,,0.0,1.0,13.0,47.0,2.904,0.2112284568657661,4.0,-0.43853352663983314,-0.5829067041344284,0.14437317749459522
109,V1,d09142021,eGaxL,interference,1.0,1.0,63.0,7.0,Lewia1.jpg,Macb1n.jpg,15.0,10.0,0.0,,0.0,1.0,63.0,7.0,1.539,-0.40536690789505986,5.0,-0.3663469378925355,-0.5468134097607796,0.18046647186824416
110,V1,d09142021,eGaxL,interference,1.0,2.0,58.0,48.0,Klinc1.jpg,Maca1n.jpg,24.0,8.0,0.0,,1.0,1.0,58.0,48.0,5.026,1.1697745110946838,16.0,-0.041507288529696096,-0.6189999985080772,0.5774927099783811
111,V1,d09142021,eGaxL,interference,1.0,3.0,44.0,24.0,Mackb1.jpg,Lewa1n.jpg,18.0,17.0,1.0,,1.0,1.0,44.0,24.0,6.888,2.0108738291786823,1.0,-0.25806705477158903,-0.29416034914523786,0.03609329437364883
112,V1,d09142021,eGaxL,interference,1.0,4.0,46.0,10.0,Lewb1n.jpg,Vinb1n.jpg,10.0,8.0,0.0,,1.0,1.0,46.0,10.0,7.556,2.3126215974279365,2.0,-0.5468134097607796,-0.6189999985080772,0.07218658874729755
113,V1,d09142021,eGaxL,interference,1.0,5.0,32.0,4.0,Kupkb1.jpg,Krasb1.jpg,6.0,17.0,1.0,,0.0,1.0,32.0,4.0,2.037,-0.18041123635594533,-11.0,-0.6911865872553749,-0.29416034914523786,-0.397026238110137
114,V1,d09142021,eGaxL,interference,2.0,6.0,32.0,4.0,Kupkb1.jpg,Krasb1.jpg,6.0,17.0,0.0,,0.0,1.0,32.0,4.0,1.018,-0.6407120984008403,-11.0,-0.6911865872553749,-0.29416034914523786,-0.397026238110137
115,V1,d09142021,eGaxL,interference,2.0,7.0,46.0,10.0,Lewb1n.jpg,Vinb1n.jpg,10.0,8.0,1.0,,1.0,1.0,46.0,10.0,3.257,0.3706849870932911,2.0,-0.5468134097607796,-0.6189999985080772,0.07218658874729755
116,V1,d09142021,eGaxL,interference,2.0,8.0,13.0,47.0,Kupka1.jpg,Vina1n.jpg,13.0,9.0,0.0,,0.0,1.0,13.0,47.0,0.948,-0.6723323735167801,4.0,-0.43853352663983314,-0.5829067041344284,0.14437317749459522
117,V1,d09142021,eGaxL,interference,2.0,9.0,63.0,7.0,Lewia1.jpg,Macb1n.jpg,15.0,10.0,1.0,,0.0,1.0,63.0,7.0,1.228,-0.545851273053021,5.0,-0.3663469378925355,-0.5468134097607796,0.18046647186824416
118,V1,d09142021,eGaxL,interference,2.0,10.0,44.0,24.0,Mackb1.jpg,Lewa1n.jpg,18.0,17.0,0.0,,1.0,1.0,44.0,24.0,1.297,-0.5146827161530231,1.0,-0.25806705477158903,-0.29416034914523786,0.03609329437364883
119,V1,d09142021,eGaxL,interference,2.0,11.0,58.0,48.0,Klinc1.jpg,Maca1n.jpg,24.0,8.0,1.0,,1.0,1.0,58.0,48.0,0.767,-0.7540933706022815,16.0,-0.041507288529696096,-0.6189999985080772,0.5774927099783811
120,V1,d09142021,eGaxL,interference,3.0,12.0,58.0,48.0,Klinc1.jpg,Maca1n.jpg,24.0,8.0,0.0,,1.0,1.0,58.0,48.0,4.898,1.1119545794541081,16.0,-0.041507288529696096,-0.6189999985080772,0.5774927099783811
121,V1,d09142021,eGaxL,interference,3.0,13.0,44.0,24.0,Mackb1.jpg,Lewa1n.jpg,18.0,17.0,0.0,,1.0,1.0,44.0,24.0,0.764,-0.7554485252501075,1.0,-0.25806705477158903,-0.29416034914523786,0.03609329437364883
122,V1,d09142021,eGaxL,interference,3.0,14.0,13.0,47.0,Kupka1.jpg,Vina1n.jpg,13.0,9.0,0.0,,0.0,1.0,13.0,47.0,0.635,-0.8137201751066251,4.0,-0.43853352663983314,-0.5829067041344284,0.14437317749459522
123,V1,d09142021,eGaxL,interference,3.0,15.0,63.0,7.0,Lewia1.jpg,Macb1n.jpg,15.0,10.0,0.0,,0.0,1.0,63.0,7.0,1.812,-0.2820478349428946,5.0,-0.3663469378925355,-0.5468134097607796,0.18046647186824416
124,V1,d09142021,eGaxL,interference,3.0,16.0,46.0,10.0,Lewb1n.jpg,Vinb1n.jpg,10.0,8.0,0.0,,1.0,1.0,46.0,10.0,0.707,-0.7811964635588015,2.0,-0.5468134097607796,-0.6189999985080772,0.07218658874729755
125,V1,d09142021,eGaxL,interference,3.0,17.0,32.0,4.0,Kupkb1.jpg,Krasb1.jpg,6.0,17.0,0.0,,0.0,1.0,32.0,4.0,0.574,-0.841274986279087,-11.0,-0.6911865872553749,-0.29416034914523786,-0.397026238110137
126,V1,d09172021,NtP4V,interference,1.0,0.0,30.0,49.0,Kraa1n.jpg,Lewc1n.jpg,33.0,34.0,1.0,,1.0,0.0,49.0,30.0,1.474,0.5133805652119067,-1.0,-0.9086368049999423,-0.8657765783490017,-0.04286022665094058
127,V1,d09172021,NtP4V,interference,1.0,1.0,43.0,0.0,Clifb1.jpg,Monb1n.jpg,65.0,54.0,1.0,,0.0,1.0,43.0,0.0,1.146,-0.2604256275404802,11.0,0.4628904478301591,-0.008572045330188256,0.47146249316034733
128,V1,d09172021,NtP4V,interference,1.0,2.0,53.0,14.0,Macc1n.jpg,Grib1n.jpg,58.0,68.0,0.0,,1.0,0.0,14.0,53.0,1.56,0.7162687742872277,-10.0,0.16286886127357442,0.5914711277829812,-0.42860226650940675
129,V1,d09172021,NtP4V,interference,1.0,3.0,11.0,1.0,Clifa1.jpg,Monda1.jpg,66.0,58.0,0.0,,0.0,0.0,1.0,11.0,1.778,1.230566792640948,8.0,0.5057506744810998,0.16286886127357442,0.34288181320752537
130,V1,d09172021,NtP4V,interference,1.0,4.0,31.0,27.0,Picac1.jpg,Gustc1.jpg,65.0,58.0,1.0,,0.0,1.0,31.0,27.0,2.515,2.9692715611120124,7.0,0.4628904478301591,0.16286886127357442,0.3000215865565847
131,V1,d09172021,NtP4V,interference,1.0,5.0,68.0,59.0,Mondb1.jpg,Macka1.jpg,69.0,66.0,0.0,,1.0,0.0,59.0,68.0,1.359,0.2420765647042101,3.0,0.6343313544339217,0.5057506744810998,0.12858067995282196
132,V1,d09172021,NtP4V,interference,2.0,6.0,31.0,27.0,Picac1.jpg,Gustc1.jpg,65.0,58.0,0.0,,0.0,1.0,31.0,27.0,1.239,-0.04102326191251646,7.0,0.4628904478301591,0.16286886127357442,0.3000215865565847
133,V1,d09172021,NtP4V,interference,2.0,7.0,43.0,0.0,Clifb1.jpg,Monb1n.jpg,65.0,54.0,0.0,,0.0,1.0,43.0,0.0,0.782,-1.1191617682778847,11.0,0.4628904478301591,-0.008572045330188256,0.47146249316034733
134,V1,d09172021,NtP4V,interference,2.0,8.0,68.0,59.0,Mondb1.jpg,Macka1.jpg,69.0,66.0,1.0,,1.0,0.0,59.0,68.0,0.992,-0.6237370716986128,3.0,0.6343313544339217,0.5057506744810998,0.12858067995282196
135,V1,d09172021,NtP4V,interference,2.0,9.0,11.0,1.0,Clifa1.jpg,Monda1.jpg,66.0,58.0,1.0,,0.0,0.0,1.0,11.0,1.409,0.36003482579451307,8.0,0.5057506744810998,0.16286886127357442,0.34288181320752537
136,V1,d09172021,NtP4V,interference,2.0,10.0,30.0,49.0,Kraa1n.jpg,Lewc1n.jpg,33.0,34.0,0.0,,1.0,0.0,49.0,30.0,1.176,-0.18965067088629844,-1.0,-0.9086368049999423,-0.8657765783490017,-0.04286022665094058
137,V1,d09172021,NtP4V,interference,2.0,11.0,53.0,14.0,Macc1n.jpg,Grib1n.jpg,58.0,68.0,1.0,,1.0,0.0,14.0,53.0,1.489,0.5487680435389978,-10.0,0.16286886127357442,0.5914711277829812,-0.42860226650940675
138,V1,d09172021,NtP4V,interference,3.0,12.0,43.0,0.0,Clifb1.jpg,Monb1n.jpg,65.0,54.0,0.0,,0.0,1.0,43.0,0.0,1.139,-0.27693978409312237,11.0,0.4628904478301591,-0.008572045330188256,0.47146249316034733
139,V1,d09172021,NtP4V,interference,3.0,13.0,53.0,14.0,Macc1n.jpg,Grib1n.jpg,58.0,68.0,0.0,,1.0,0.0,14.0,53.0,0.978,-0.6567653848038976,-10.0,0.16286886127357442,0.5914711277829812,-0.42860226650940675
140,V1,d09172021,NtP4V,interference,3.0,14.0,30.0,49.0,Kraa1n.jpg,Lewc1n.jpg,33.0,34.0,0.0,,1.0,0.0,49.0,30.0,0.772,-1.1427534204959453,-1.0,-0.9086368049999423,-0.8657765783490017,-0.04286022665094058
141,V1,d09172021,NtP4V,interference,3.0,15.0,11.0,1.0,Clifa1.jpg,Monda1.jpg,66.0,58.0,0.0,,0.0,0.0,1.0,11.0,0.816,-1.038950150736479,8.0,0.5057506744810998,0.16286886127357442,0.34288181320752537
142,V1,d09172021,NtP4V,interference,3.0,16.0,31.0,27.0,Picac1.jpg,Gustc1.jpg,65.0,58.0,0.0,,0.0,1.0,31.0,27.0,1.017,-0.5647579411534616,7.0,0.4628904478301591,0.16286886127357442,0.3000215865565847
143,V1,d09172021,NtP4V,interference,3.0,17.0,68.0,59.0,Mondb1.jpg,Macka1.jpg,69.0,66.0,0.0,,1.0,0.0,59.0,68.0,0.974,-0.6662020456911218,3.0,0.6343313544339217,0.5057506744810998,0.12858067995282196
144,V1,d09172021,UmcnU,interference,1.0,0.0,17.0,41.0,Picaa1.jpg,Picae1.jpg,82.0,74.0,0.0,,1.0,0.0,41.0,17.0,2.137,1.2228708704623126,8.0,0.7686853293957494,0.5205555660400266,0.2481297633557228
145,V1,d09172021,UmcnU,interference,1.0,1.0,43.0,64.0,Clifb1.jpg,Vincb1.jpg,74.0,62.0,0.0,,0.0,1.0,43.0,64.0,1.171,-0.7485067204517144,12.0,0.5205555660400266,0.14836092100644252,0.3721946450335841
146,V1,d09172021,UmcnU,interference,1.0,2.0,26.0,38.0,Klid1n.jpg,Krasa1.jpg,77.0,62.0,0.0,,0.0,1.0,26.0,38.0,1.737,0.40656544979397863,15.0,0.6136042272984227,0.14836092100644252,0.4652433062919802
147,V1,d09172021,UmcnU,interference,1.0,3.0,31.0,1.0,Picac1.jpg,Monda1.jpg,76.0,76.0,1.0,,1.0,0.0,1.0,31.0,2.141,1.231033924668996,0.0,0.5825880068789574,0.5825880068789574,0.0
148,V1,d09172021,UmcnU,interference,1.0,4.0,67.0,2.0,Picab1.jpg,Dekb1n.jpg,60.0,58.0,1.0,,1.0,0.0,2.0,67.0,1.869,0.6759462386145287,2.0,0.08632848016751182,0.02429603932858113,0.0620324408389307
149,V1,d09172021,UmcnU,interference,1.0,5.0,36.0,49.0,Gustb1.jpg,Lewc1n.jpg,72.0,70.0,1.0,,0.0,1.0,36.0,49.0,1.253,-0.5811641092147062,2.0,0.45852312520109595,0.3964906843621653,0.06203244083893067
150,V1,d09172021,UmcnU,interference,2.0,6.0,36.0,49.0,Gustb1.jpg,Lewc1n.jpg,72.0,70.0,0.0,,0.0,1.0,36.0,49.0,1.076,-0.9423792578604437,2.0,0.45852312520109595,0.3964906843621653,0.06203244083893067
151,V1,d09172021,UmcnU,interference,2.0,7.0,43.0,64.0,Clifb1.jpg,Vincb1.jpg,74.0,62.0,1.0,,0.0,1.0,43.0,64.0,0.77,-1.5668529046717194,12.0,0.5205555660400266,0.14836092100644252,0.3721946450335841
152,V1,d09172021,UmcnU,interference,2.0,8.0,67.0,2.0,Picab1.jpg,Dekb1n.jpg,60.0,58.0,0.0,,1.0,0.0,2.0,67.0,1.254,-0.5791233456630351,2.0,0.08632848016751182,0.02429603932858113,0.0620324408389307
153,V1,d09172021,UmcnU,interference,2.0,9.0,17.0,41.0,Picaa1.jpg,Picae1.jpg,82.0,74.0,1.0,,1.0,0.0,41.0,17.0,2.259,1.4718440237661543,8.0,0.7686853293957494,0.5205555660400266,0.2481297633557228
154,V1,d09172021,UmcnU,interference,2.0,10.0,31.0,1.0,Picac1.jpg,Monda1.jpg,76.0,76.0,0.0,,1.0,1.0,31.0,1.0,2.194,1.3391943929075503,0.0,0.5825880068789574,0.5825880068789574,0.0
155,V1,d09172021,UmcnU,interference,2.0,11.0,26.0,38.0,Klid1n.jpg,Krasa1.jpg,77.0,62.0,1.0,,0.0,1.0,26.0,38.0,1.774,0.4820737012057994,15.0,0.6136042272984227,0.14836092100644252,0.4652433062919802
156,V1,d09172021,UmcnU,interference,3.0,12.0,67.0,2.0,Picab1.jpg,Dekb1n.jpg,60.0,58.0,0.0,,1.0,0.0,2.0,67.0,1.227,-0.6342239615581475,2.0,0.08632848016751182,0.02429603932858113,0.0620324408389307
157,V1,d09172021,UmcnU,interference,3.0,13.0,36.0,49.0,Gustb1.jpg,Lewc1n.jpg,72.0,70.0,0.0,,0.0,1.0,36.0,49.0,0.931,-1.238289972852715,2.0,0.45852312520109595,0.3964906843621653,0.06203244083893067
158,V1,d09172021,UmcnU,interference,3.0,14.0,43.0,64.0,Clifb1.jpg,Vincb1.jpg,74.0,62.0,0.0,,0.0,1.0,43.0,64.0,0.973,-1.15257790368254,12.0,0.5205555660400266,0.14836092100644252,0.3721946450335841
159,V1,d09172021,UmcnU,interference,3.0,15.0,26.0,38.0,Klid1n.jpg,Krasa1.jpg,77.0,62.0,0.0,,0.0,0.0,38.0,26.0,1.745,0.4228915582073453,15.0,0.6136042272984227,0.14836092100644252,0.4652433062919802
160,V1,d09172021,UmcnU,interference,3.0,16.0,31.0,1.0,Picac1.jpg,Monda1.jpg,76.0,76.0,0.0,,1.0,1.0,31.0,1.0,1.215,-0.6587131241781976,0.0,0.5825880068789574,0.5825880068789574,0.0
161,V1,d09172021,UmcnU,interference,3.0,17.0,17.0,41.0,Picaa1.jpg,Picae1.jpg,82.0,74.0,0.0,,1.0,1.0,17.0,41.0,1.954,0.8494111405065496,8.0,0.7686853293957494,0.5205555660400266,0.2481297633557228
162,V1,d09142021,OvCTN,interference,1.0,0.0,15.0,3.0,Lassc1.jpg,Klib1n.jpg,26.0,56.0,0.0,,0.0,1.0,15.0,3.0,2.101,0.2869208739808746,-30.0,-0.9178662532898004,0.030560414862691468,-0.9484266681524919
163,V1,d09142021,OvCTN,interference,1.0,1.0,13.0,63.0,Kupka1.jpg,Lewia1.jpg,73.0,81.0,1.0,,0.0,0.0,63.0,13.0,3.0,1.1721360470520872,-8.0,0.5680021934824369,0.8209159716564347,-0.25291377817399785
164,V1,d09142021,OvCTN,interference,1.0,2.0,56.0,27.0,Clib1n.jpg,Gustc1.jpg,29.0,80.0,0.0,,1.0,0.0,27.0,56.0,2.373,0.5547501588255577,-51.0,-0.8230235864745513,0.789301749384685,-1.6123253358592362
165,V1,d09142021,OvCTN,interference,1.0,3.0,26.0,46.0,Klid1n.jpg,Lewb1n.jpg,80.0,80.0,0.0,,1.0,0.0,46.0,26.0,1.336,-0.4663489896447955,0.0,0.789301749384685,0.789301749384685,0.0
166,V1,d09142021,OvCTN,interference,1.0,4.0,54.0,40.0,Rohla1.jpg,Vinc1n.jpg,73.0,41.0,1.0,,0.0,1.0,54.0,40.0,1.41,-0.39348366950322755,32.0,0.5680021934824369,-0.4436529192135545,1.0116551126959914
167,V1,d09142021,OvCTN,interference,1.0,5.0,50.0,55.0,Klic1n.jpg,Clia1n.jpg,25.0,66.0,1.0,,1.0,0.0,55.0,50.0,2.135,0.3203995345864598,-41.0,-0.9494804755615502,0.34670263758018877,-1.296183113141739
168,V1,d09142021,OvCTN,interference,2.0,6.0,13.0,63.0,Kupka1.jpg,Lewia1.jpg,73.0,81.0,0.0,,0.0,0.0,63.0,13.0,3.279,1.4468579973155669,-8.0,0.5680021934824369,0.8209159716564347,-0.25291377817399785
169,V1,d09142021,OvCTN,interference,2.0,7.0,54.0,40.0,Rohla1.jpg,Vinc1n.jpg,73.0,41.0,0.0,,0.0,1.0,54.0,40.0,0.769,-1.024654888567351,32.0,0.5680021934824369,-0.4436529192135545,1.0116551126959914
170,V1,d09142021,OvCTN,interference,2.0,8.0,15.0,3.0,Lassc1.jpg,Klib1n.jpg,26.0,56.0,1.0,,0.0,1.0,15.0,3.0,1.003,-0.7942429302818521,-30.0,-0.9178662532898004,0.030560414862691468,-0.9484266681524919
171,V1,d09142021,OvCTN,interference,2.0,9.0,26.0,46.0,Klid1n.jpg,Lewb1n.jpg,80.0,80.0,1.0,,1.0,0.0,46.0,26.0,1.979,0.16679156239612736,0.0,0.789301749384685,0.789301749384685,0.0
172,V1,d09142021,OvCTN,interference,2.0,10.0,56.0,27.0,Clib1n.jpg,Gustc1.jpg,29.0,80.0,1.0,,1.0,0.0,27.0,56.0,3.784,1.944114573957349,-51.0,-0.8230235864745513,0.789301749384685,-1.6123253358592362
173,V1,d09142021,OvCTN,interference,2.0,11.0,50.0,55.0,Klic1n.jpg,Clia1n.jpg,25.0,66.0,0.0,,1.0,0.0,55.0,50.0,1.643,-0.1640563777061279,-41.0,-0.9494804755615502,0.34670263758018877,-1.296183113141739
174,V1,d09142021,OvCTN,interference,3.0,12.0,13.0,63.0,Kupka1.jpg,Lewia1.jpg,73.0,81.0,0.0,,0.0,0.0,63.0,13.0,3.456,1.6211439657622906,-8.0,0.5680021934824369,0.8209159716564347,-0.25291377817399785
175,V1,d09142021,OvCTN,interference,3.0,13.0,54.0,40.0,Rohla1.jpg,Vinc1n.jpg,73.0,41.0,0.0,,0.0,1.0,54.0,40.0,0.883,-0.9124029088898004,32.0,0.5680021934824369,-0.4436529192135545,1.0116551126959914
176,V1,d09142021,OvCTN,interference,3.0,14.0,50.0,55.0,Klic1n.jpg,Clia1n.jpg,25.0,66.0,0.0,,1.0,0.0,55.0,50.0,0.71,-1.0827502113829257,-41.0,-0.9494804755615502,0.34670263758018877,-1.296183113141739
177,V1,d09142021,OvCTN,interference,3.0,15.0,56.0,27.0,Clib1n.jpg,Gustc1.jpg,29.0,80.0,0.0,,1.0,0.0,27.0,56.0,1.169,-0.6307882932075236,-51.0,-0.8230235864745513,0.789301749384685,-1.6123253358592362
178,V1,d09142021,OvCTN,interference,3.0,16.0,26.0,46.0,Klid1n.jpg,Lewb1n.jpg,80.0,80.0,0.0,,1.0,0.0,46.0,26.0,0.9,-0.8956635785870076,0.0,0.789301749384685,0.789301749384685,0.0
179,V1,d09142021,OvCTN,interference,3.0,17.0,15.0,3.0,Lassc1.jpg,Klib1n.jpg,26.0,56.0,0.0,,0.0,1.0,15.0,3.0,0.643,-1.148722866105697,-30.0,-0.9178662532898004,0.030560414862691468,-0.9484266681524919
180,V1,d09172021,bOPuu,interference,1.0,0.0,63.0,48.0,Lewia1.jpg,Maca1n.jpg,56.0,53.0,1.0,,0.0,1.0,63.0,48.0,1.274,-0.29784144395294626,3.0,0.5271147063955008,0.36575306158055154,0.1613616448149493
181,V1,d09172021,bOPuu,interference,1.0,1.0,17.0,38.0,Picaa1.jpg,Krasa1.jpg,52.0,38.0,1.0,,0.0,1.0,17.0,38.0,2.794,1.6738357654718332,14.0,0.3119658466422351,-0.44105516249419485,0.75302100913643
182,V1,d09172021,bOPuu,interference,1.0,2.0,55.0,57.0,Clia1n.jpg,Lassa1.jpg,37.0,57.0,1.0,,1.0,0.0,57.0,55.0,2.267,0.9902345224673207,-20.0,-0.49484237743251125,0.5809019213338172,-1.0757442987663284
183,V1,d09172021,bOPuu,interference,1.0,3.0,68.0,47.0,Mondb1.jpg,Vina1n.jpg,46.0,58.0,0.0,,0.0,0.0,47.0,68.0,3.287,2.3133337024760543,-12.0,-0.010757442987663438,0.6346891362721336,-0.6454465792597971
184,V1,d09172021,bOPuu,interference,1.0,4.0,26.0,36.0,Klid1n.jpg,Gustb1.jpg,40.0,54.0,0.0,,1.0,0.0,36.0,26.0,2.282,1.0096918633498022,-14.0,-0.333480732617562,0.41954027651886794,-0.75302100913643
185,V1,d09172021,bOPuu,interference,1.0,5.0,53.0,13.0,Macc1n.jpg,Kupka1.jpg,46.0,57.0,0.0,,1.0,0.0,13.0,53.0,1.03,-0.6143475223079766,-11.0,-0.010757442987663438,0.5809019213338172,-0.5916593643214807
186,V1,d09172021,bOPuu,interference,2.0,6.0,26.0,36.0,Klid1n.jpg,Gustb1.jpg,40.0,54.0,1.0,,1.0,0.0,36.0,26.0,1.052,-0.5858100890136706,-14.0,-0.333480732617562,0.41954027651886794,-0.75302100913643
187,V1,d09172021,bOPuu,interference,2.0,7.0,17.0,38.0,Picaa1.jpg,Krasa1.jpg,52.0,38.0,0.0,,0.0,1.0,17.0,38.0,1.609,0.13670583575580444,14.0,0.3119658466422351,-0.44105516249419485,0.75302100913643
188,V1,d09172021,bOPuu,interference,2.0,8.0,68.0,47.0,Mondb1.jpg,Vina1n.jpg,46.0,58.0,1.0,,0.0,0.0,47.0,68.0,1.089,-0.5378153148368833,-12.0,-0.010757442987663438,0.6346891362721336,-0.6454465792597971
189,V1,d09172021,bOPuu,interference,2.0,9.0,63.0,48.0,Lewia1.jpg,Maca1n.jpg,56.0,53.0,0.0,,0.0,1.0,63.0,48.0,2.259,0.979857273996664,3.0,0.5271147063955008,0.36575306158055154,0.1613616448149493
190,V1,d09172021,bOPuu,interference,2.0,10.0,55.0,57.0,Clia1n.jpg,Lassa1.jpg,37.0,57.0,0.0,,1.0,0.0,57.0,55.0,0.939,-0.732388723661697,-20.0,-0.49484237743251125,0.5809019213338172,-1.0757442987663284
191,V1,d09172021,bOPuu,interference,2.0,11.0,53.0,13.0,Macc1n.jpg,Kupka1.jpg,46.0,57.0,1.0,,1.0,0.0,13.0,53.0,0.669,-1.0826208595463618,-11.0,-0.010757442987663438,0.5809019213338172,-0.5916593643214807
192,V1,d09172021,bOPuu,interference,3.0,12.0,63.0,48.0,Lewia1.jpg,Maca1n.jpg,56.0,53.0,0.0,,0.0,1.0,63.0,48.0,1.459,-0.0578675730690092,3.0,0.5271147063955008,0.36575306158055154,0.1613616448149493
193,V1,d09172021,bOPuu,interference,3.0,13.0,26.0,36.0,Klid1n.jpg,Gustb1.jpg,40.0,54.0,0.0,,1.0,0.0,36.0,26.0,1.414,-0.11623959571645352,-14.0,-0.333480732617562,0.41954027651886794,-0.75302100913643
194,V1,d09172021,bOPuu,interference,3.0,14.0,68.0,47.0,Mondb1.jpg,Vina1n.jpg,46.0,58.0,0.0,,0.0,0.0,47.0,68.0,1.409,-0.12272537601061384,-12.0,-0.010757442987663438,0.6346891362721336,-0.6454465792597971
195,V1,d09172021,bOPuu,interference,3.0,15.0,55.0,57.0,Clia1n.jpg,Lassa1.jpg,37.0,57.0,0.0,,1.0,0.0,57.0,55.0,0.906,-0.775194873603156,-20.0,-0.49484237743251125,0.5809019213338172,-1.0757442987663284
196,V1,d09172021,bOPuu,interference,3.0,16.0,17.0,38.0,Picaa1.jpg,Krasa1.jpg,52.0,38.0,0.0,,0.0,1.0,17.0,38.0,0.785,-0.9321507567218391,14.0,0.3119658466422351,-0.44105516249419485,0.75302100913643
197,V1,d09172021,bOPuu,interference,3.0,17.0,53.0,13.0,Macc1n.jpg,Kupka1.jpg,46.0,57.0,0.0,,1.0,0.0,13.0,53.0,0.541,-1.2486568350768694,-11.0,-0.010757442987663438,0.5809019213338172,-0.5916593643214807
198,V1,d09142021,skpJF,interference,1.0,0.0,62.0,35.0,Mona1n.jpg,Gusa1n.jpg,34.0,58.0,1.0,,0.0,1.0,62.0,35.0,3.797,1.1005975053535781,-24.0,-0.7000788995925438,0.24296470696803887,-0.9430436065605826
199,V1,d09142021,skpJF,interference,1.0,1.0,59.0,11.0,Macka1.jpg,Clifa1.jpg,41.0,71.0,0.0,,1.0,0.0,11.0,59.0,2.851,0.5127560223022081,-30.0,-0.42502451434570715,0.7537799938550211,-1.1788045082007284
200,V1,d09142021,skpJF,interference,1.0,2.0,67.0,49.0,Picab1.jpg,Lewc1n.jpg,37.0,38.0,1.0,,1.0,0.0,49.0,67.0,1.676,-0.2173853546379186,-1.0,-0.582198448772471,-0.54290496516578,-0.03929348360669094
201,V1,d09142021,skpJF,interference,1.0,3.0,33.0,18.0,Kline1.jpg,Krab1n.jpg,49.0,67.0,0.0,,0.0,1.0,33.0,18.0,2.487,0.28656754467990503,-18.0,-0.11067664549217962,0.5966060594282574,-0.707282704920437
202,V1,d09142021,skpJF,interference,1.0,4.0,21.0,47.0,Kupkc1.jpg,Vina1n.jpg,72.0,51.0,1.0,,0.0,0.0,47.0,21.0,5.021,1.8611873312043994,21.0,0.7930734774617121,-0.03208967827879773,0.8251631557405098
203,V1,d09142021,skpJF,interference,1.0,5.0,7.0,2.0,Macb1n.jpg,Dekb1n.jpg,39.0,47.0,0.0,,1.0,1.0,7.0,2.0,6.356,2.6907522147916922,-8.0,-0.5036114815590891,-0.1892636127055615,-0.3143478688535276
204,V1,d09142021,skpJF,interference,2.0,6.0,67.0,49.0,Picab1.jpg,Lewc1n.jpg,37.0,38.0,0.0,,1.0,0.0,49.0,67.0,0.997,-0.6393138609718301,-1.0,-0.582198448772471,-0.54290496516578,-0.03929348360669094
205,V1,d09142021,skpJF,interference,2.0,7.0,59.0,11.0,Macka1.jpg,Clifa1.jpg,41.0,71.0,1.0,,1.0,0.0,11.0,59.0,0.91,-0.6933753927112266,-30.0,-0.42502451434570715,0.7537799938550211,-1.1788045082007284
206,V1,d09142021,skpJF,interference,2.0,8.0,33.0,18.0,Kline1.jpg,Krab1n.jpg,49.0,67.0,1.0,,0.0,1.0,33.0,18.0,1.363,-0.4118825895164374,-18.0,-0.11067664549217962,0.5966060594282574,-0.707282704920437
207,V1,d09142021,skpJF,interference,2.0,9.0,7.0,2.0,Macb1n.jpg,Dekb1n.jpg,39.0,47.0,1.0,,1.0,1.0,7.0,2.0,2.78,0.4686368412275279,-8.0,-0.5036114815590891,-0.1892636127055615,-0.3143478688535276
208,V1,d09142021,skpJF,interference,2.0,10.0,62.0,35.0,Mona1n.jpg,Gusa1n.jpg,34.0,58.0,0.0,,0.0,1.0,62.0,35.0,1.475,-0.342286134863421,-24.0,-0.7000788995925438,0.24296470696803887,-0.9430436065605826
209,V1,d09142021,skpJF,interference,2.0,11.0,21.0,47.0,Kupkc1.jpg,Vina1n.jpg,72.0,51.0,0.0,,0.0,0.0,47.0,21.0,1.534,-0.30562371678727857,21.0,0.7930734774617121,-0.03208967827879773,0.8251631557405098
210,V1,d09142021,skpJF,interference,3.0,12.0,33.0,18.0,Kline1.jpg,Krab1n.jpg,49.0,67.0,0.0,,0.0,1.0,33.0,18.0,1.252,-0.48085764725290897,-18.0,-0.11067664549217962,0.5966060594282574,-0.707282704920437
211,V1,d09142021,skpJF,interference,3.0,13.0,59.0,11.0,Macka1.jpg,Clifa1.jpg,41.0,71.0,0.0,,1.0,0.0,11.0,59.0,0.942,-0.6734906913817934,-30.0,-0.42502451434570715,0.7537799938550211,-1.1788045082007284
212,V1,d09142021,skpJF,interference,3.0,14.0,7.0,2.0,Macb1n.jpg,Dekb1n.jpg,39.0,47.0,0.0,,1.0,1.0,7.0,2.0,0.982,-0.6486348147200018,-8.0,-0.5036114815590891,-0.1892636127055615,-0.3143478688535276
213,V1,d09142021,skpJF,interference,3.0,15.0,21.0,47.0,Kupkc1.jpg,Vina1n.jpg,72.0,51.0,0.0,,0.0,0.0,47.0,21.0,0.671,-0.8418892557654312,21.0,0.7930734774617121,-0.03208967827879773,0.8251631557405098
214,V1,d09142021,skpJF,interference,3.0,16.0,62.0,35.0,Mona1n.jpg,Gusa1n.jpg,34.0,58.0,0.0,,0.0,1.0,62.0,35.0,0.725,-0.8083338222720124,-24.0,-0.7000788995925438,0.24296470696803887,-0.9430436065605826
215,V1,d09142021,skpJF,interference,3.0,17.0,67.0,49.0,Picab1.jpg,Lewc1n.jpg,37.0,38.0,0.0,,1.0,0.0,49.0,67.0,0.646,-0.857424178679051,-1.0,-0.582198448772471,-0.54290496516578,-0.03929348360669094
216,V1,d09142021,Pj09s,interference,1.0,0.0,22.0,38.0,Klina1.jpg,Krasa1.jpg,55.0,56.0,1.0,,1.0,0.0,38.0,22.0,2.37,1.0545687235378063,-1.0,-0.20593675620846472,-0.15631344145943707,-0.04962331474902765
217,V1,d09142021,Pj09s,interference,1.0,1.0,23.0,66.0,Rohlb1.jpg,Vinca1.jpg,56.0,68.0,0.0,,0.0,0.0,66.0,23.0,1.59,-0.03068707639408546,-12.0,-0.15631344145943707,0.4391663355288949,-0.595479776988332
218,V1,d09142021,Pj09s,interference,1.0,2.0,46.0,17.0,Lewb1n.jpg,Picaa1.jpg,59.0,67.0,0.0,,0.0,0.0,17.0,46.0,2.388,1.0796130881516188,-8.0,-0.007443497212354079,0.38954302077986724,-0.39698651799222134
219,V1,d09142021,Pj09s,interference,1.0,3.0,53.0,32.0,Macc1n.jpg,Kupkb1.jpg,62.0,66.0,0.0,,1.0,0.0,32.0,53.0,3.169,2.166260241673167,-4.0,0.1414264470347289,0.33991970603083954,-0.19849325899611064
220,V1,d09142021,Pj09s,interference,1.0,4.0,68.0,55.0,Mondb1.jpg,Clia1n.jpg,70.0,53.0,1.0,,0.0,1.0,68.0,55.0,2.821,1.6820691924727849,17.0,0.5384129650269502,-0.30518338570652004,0.8435963507334703
221,V1,d09142021,Pj09s,interference,1.0,5.0,24.0,50.0,Lewa1n.jpg,Klic1n.jpg,69.0,63.0,1.0,,1.0,1.0,24.0,50.0,1.858,0.3421956856337953,6.0,0.48878965027792254,0.19104976178375657,0.297739888494166
222,V1,d09142021,Pj09s,interference,2.0,6.0,53.0,32.0,Macc1n.jpg,Kupkb1.jpg,62.0,66.0,1.0,,1.0,0.0,32.0,53.0,2.091,0.6663810720237067,-4.0,0.1414264470347289,0.33991970603083954,-0.19849325899611064
223,V1,d09142021,Pj09s,interference,2.0,7.0,46.0,17.0,Lewb1n.jpg,Picaa1.jpg,59.0,67.0,1.0,,0.0,0.0,17.0,46.0,1.655,0.05975090693357211,-8.0,-0.007443497212354079,0.38954302077986724,-0.39698651799222134
224,V1,d09142021,Pj09s,interference,2.0,8.0,24.0,50.0,Lewa1n.jpg,Klic1n.jpg,69.0,63.0,0.0,,1.0,1.0,24.0,50.0,1.032,-0.807062379422285,6.0,0.48878965027792254,0.19104976178375657,0.297739888494166
225,V1,d09142021,Pj09s,interference,2.0,9.0,23.0,66.0,Rohlb1.jpg,Vinca1.jpg,56.0,68.0,1.0,,0.0,0.0,66.0,23.0,1.063,-0.7639304181429407,-12.0,-0.15631344145943707,0.4391663355288949,-0.595479776988332
226,V1,d09142021,Pj09s,interference,2.0,10.0,68.0,55.0,Mondb1.jpg,Clia1n.jpg,70.0,53.0,0.0,,0.0,1.0,68.0,55.0,1.749,0.19053814436126174,17.0,0.5384129650269502,-0.30518338570652004,0.8435963507334703
227,V1,d09142021,Pj09s,interference,2.0,11.0,22.0,38.0,Klina1.jpg,Krasa1.jpg,55.0,56.0,0.0,,1.0,0.0,38.0,22.0,1.605,-0.009816772549241522,-1.0,-0.20593675620846472,-0.15631344145943707,-0.04962331474902765
228,V1,d09142021,Pj09s,interference,3.0,12.0,24.0,50.0,Lewa1n.jpg,Klic1n.jpg,69.0,63.0,0.0,,1.0,1.0,24.0,50.0,0.994,-0.8599338158292233,6.0,0.48878965027792254,0.19104976178375657,0.297739888494166
229,V1,d09142021,Pj09s,interference,3.0,13.0,23.0,66.0,Rohlb1.jpg,Vinca1.jpg,56.0,68.0,0.0,,0.0,0.0,66.0,23.0,0.817,-1.1062034011983835,-12.0,-0.15631344145943707,0.4391663355288949,-0.595479776988332
230,V1,d09142021,Pj09s,interference,3.0,14.0,46.0,17.0,Lewb1n.jpg,Picaa1.jpg,59.0,67.0,0.0,,0.0,0.0,17.0,46.0,0.953,-0.9169793130051305,-8.0,-0.007443497212354079,0.38954302077986724,-0.39698651799222134
231,V1,d09142021,Pj09s,interference,3.0,15.0,22.0,38.0,Klina1.jpg,Krasa1.jpg,55.0,56.0,0.0,,1.0,0.0,38.0,22.0,0.832,-1.0853330973535393,-1.0,-0.20593675620846472,-0.15631344145943707,-0.04962331474902765
232,V1,d09142021,Pj09s,interference,3.0,16.0,53.0,32.0,Macc1n.jpg,Kupkb1.jpg,62.0,66.0,0.0,,1.0,0.0,32.0,53.0,0.998,-0.8543684014705982,-4.0,0.1414264470347289,0.33991970603083954,-0.19849325899611064
233,V1,d09142021,Pj09s,interference,3.0,17.0,68.0,55.0,Mondb1.jpg,Clia1n.jpg,70.0,53.0,0.0,,0.0,0.0,55.0,68.0,1.032,-0.807062379422285,17.0,0.5384129650269502,-0.30518338570652004,0.8435963507334703
234,V1,d09172021,MlgU9,interference,1.0,0.0,0.0,2.0,Monb1n.jpg,Dekb1n.jpg,51.0,55.0,1.0,,1.0,0.0,2.0,0.0,1.293,0.5602114156789424,-4.0,-0.1602664267048454,0.24039964005726772,-0.40066606676211314
235,V1,d09172021,MlgU9,interference,1.0,1.0,60.0,16.0,Kupc1n.jpg,Vincc1.jpg,60.0,50.0,0.0,,0.0,1.0,60.0,16.0,0.594,-0.8215921585363982,10.0,0.7412322235099091,-0.26043294339537365,1.0016651669052827
236,V1,d09172021,MlgU9,interference,1.0,2.0,47.0,38.0,Vina1n.jpg,Krasa1.jpg,49.0,50.0,1.0,,0.0,1.0,47.0,38.0,2.438,2.823680789751282,-1.0,-0.36059946008590194,-0.26043294339537365,-0.10016651669052828
237,V1,d09172021,MlgU9,interference,1.0,3.0,64.0,21.0,Vincb1.jpg,Kupkc1.jpg,46.0,59.0,0.0,,1.0,0.0,21.0,64.0,1.249,0.4732309331818398,-13.0,-0.6610990101574867,0.6410657068193808,-1.3021647169768675
238,V1,d09172021,MlgU9,interference,1.0,4.0,53.0,20.0,Macc1n.jpg,Picb1n.jpg,54.0,58.0,0.0,,1.0,1.0,53.0,20.0,1.046,0.07193461620656903,-4.0,0.14023312336673943,0.5408991901288526,-0.40066606676211314
239,V1,d09172021,MlgU9,interference,1.0,5.0,19.0,52.0,Picc1n.jpg,Dekoa1.jpg,54.0,56.0,1.0,,0.0,1.0,19.0,52.0,0.703,-0.6061177814413022,-2.0,0.14023312336673943,0.340566156747796,-0.20033303338105657
240,V1,d09172021,MlgU9,interference,2.0,6.0,64.0,21.0,Vincb1.jpg,Kupkc1.jpg,46.0,59.0,1.0,,1.0,0.0,21.0,64.0,1.3,0.5740492197125727,-13.0,-0.6610990101574867,0.6410657068193808,-1.3021647169768675
241,V1,d09172021,MlgU9,interference,2.0,7.0,47.0,38.0,Vina1n.jpg,Krasa1.jpg,49.0,50.0,0.0,,0.0,1.0,47.0,38.0,0.955,-0.10795683623062141,-1.0,-0.36059946008590194,-0.26043294339537365,-0.10016651669052828
242,V1,d09172021,MlgU9,interference,2.0,8.0,0.0,2.0,Monb1n.jpg,Dekb1n.jpg,51.0,55.0,0.0,,1.0,0.0,2.0,0.0,0.814,-0.3866897460508833,-4.0,-0.1602664267048454,0.24039964005726772,-0.40066606676211314
243,V1,d09172021,MlgU9,interference,2.0,9.0,60.0,16.0,Kupc1n.jpg,Vincc1.jpg,60.0,50.0,1.0,,0.0,1.0,60.0,16.0,0.67,-0.6713531433141293,10.0,0.7412322235099091,-0.26043294339537365,1.0016651669052827
244,V1,d09172021,MlgU9,interference,2.0,10.0,19.0,52.0,Picc1n.jpg,Dekoa1.jpg,54.0,56.0,0.0,,0.0,1.0,19.0,52.0,0.76,-0.4934385200246005,-2.0,0.14023312336673943,0.340566156747796,-0.20033303338105657
245,V1,d09172021,MlgU9,interference,2.0,11.0,53.0,20.0,Macc1n.jpg,Picb1n.jpg,54.0,58.0,1.0,,1.0,0.0,20.0,53.0,2.014,1.9855052311428345,-4.0,0.14023312336673943,0.5408991901288526,-0.40066606676211314
246,V1,d09172021,MlgU9,interference,3.0,12.0,60.0,16.0,Kupc1n.jpg,Vincc1.jpg,60.0,50.0,0.0,,0.0,1.0,60.0,16.0,0.676,-0.6594921684281607,10.0,0.7412322235099091,-0.26043294339537365,1.0016651669052827
247,V1,d09172021,MlgU9,interference,3.0,13.0,0.0,2.0,Monb1n.jpg,Dekb1n.jpg,51.0,55.0,0.0,,1.0,0.0,2.0,0.0,0.813,-0.38866657519854475,-4.0,-0.1602664267048454,0.24039964005726772,-0.40066606676211314
248,V1,d09172021,MlgU9,interference,3.0,14.0,64.0,21.0,Vincb1.jpg,Kupkc1.jpg,46.0,59.0,0.0,,1.0,0.0,21.0,64.0,0.638,-0.7346116760392951,-13.0,-0.6610990101574867,0.6410657068193808,-1.3021647169768675
249,V1,d09172021,MlgU9,interference,3.0,15.0,53.0,20.0,Macc1n.jpg,Picb1n.jpg,54.0,58.0,0.0,,1.0,1.0,53.0,20.0,0.686,-0.6397238769515463,-4.0,0.14023312336673943,0.5408991901288526,-0.40066606676211314
250,V1,d09172021,MlgU9,interference,3.0,16.0,19.0,52.0,Picc1n.jpg,Dekoa1.jpg,54.0,56.0,0.0,,0.0,1.0,19.0,52.0,0.566,-0.8769433746709183,-2.0,0.14023312336673943,0.340566156747796,-0.20033303338105657
251,V1,d09172021,MlgU9,interference,3.0,17.0,47.0,38.0,Vina1n.jpg,Krasa1.jpg,49.0,50.0,0.0,,0.0,1.0,47.0,38.0,0.958,-0.10202634878763711,-1.0,-0.36059946008590194,-0.26043294339537365,-0.10016651669052828
252,V1,d09142021,OKSBe,interference,1.0,0.0,41.0,56.0,Picae1.jpg,Clib1n.jpg,61.0,45.0,1.0,,1.0,0.0,56.0,41.0,0.713,-0.4455524129017124,16.0,0.7064858868209815,-0.414549569952807,1.1210354567737886
253,V1,d09142021,OKSBe,interference,1.0,1.0,13.0,15.0,Kupka1.jpg,Lassc1.jpg,44.0,39.0,0.0,,1.0,0.0,15.0,13.0,1.093,-0.18248996108922114,5.0,-0.4846142860011688,-0.8349378662429777,0.35032358024180893
254,V1,d09142021,OKSBe,interference,1.0,2.0,11.0,38.0,Clifa1.jpg,Krasa1.jpg,43.0,46.0,0.0,,0.0,0.0,38.0,11.0,0.841,-0.3569419028175048,-3.0,-0.5546790020495306,-0.3444848539044452,-0.21019414814508536
255,V1,d09142021,OKSBe,interference,1.0,3.0,18.0,54.0,Krab1n.jpg,Rohla1.jpg,50.0,64.0,1.0,,0.0,1.0,18.0,54.0,0.725,-0.4372451775813179,-14.0,-0.06422598971099813,0.9166800349660668,-0.9809060246770649
256,V1,d09142021,OKSBe,interference,1.0,4.0,20.0,63.0,Picb1n.jpg,Lewia1.jpg,50.0,55.0,1.0,,0.0,1.0,20.0,63.0,1.23,-0.08764902451471772,-5.0,-0.06422598971099813,0.28609759053081074,-0.3503235802418089
257,V1,d09142021,OKSBe,interference,1.0,5.0,33.0,67.0,Kline1.jpg,Picab1.jpg,41.0,53.0,0.0,,1.0,0.0,67.0,33.0,6.344,3.4526177611933884,-12.0,-0.6948084341462542,0.1459681584340872,-0.8407765925803413
258,V1,d09142021,OKSBe,interference,2.0,6.0,33.0,67.0,Kline1.jpg,Picab1.jpg,41.0,53.0,1.0,,1.0,0.0,67.0,33.0,1.164,-0.1333388187768873,-12.0,-0.6948084341462542,0.1459681584340872,-0.8407765925803413
259,V1,d09142021,OKSBe,interference,2.0,7.0,41.0,56.0,Picae1.jpg,Clib1n.jpg,61.0,45.0,0.0,,1.0,0.0,56.0,41.0,3.887,1.7517113293426225,16.0,0.7064858868209815,-0.414549569952807,1.1210354567737886
260,V1,d09142021,OKSBe,interference,2.0,8.0,11.0,38.0,Clifa1.jpg,Krasa1.jpg,43.0,46.0,1.0,,0.0,0.0,38.0,11.0,0.82,-0.37147956462819515,-3.0,-0.5546790020495306,-0.3444848539044452,-0.21019414814508536
261,V1,d09142021,OKSBe,interference,2.0,9.0,18.0,54.0,Krab1n.jpg,Rohla1.jpg,50.0,64.0,0.0,,0.0,1.0,18.0,54.0,0.675,-0.47185865808296146,-14.0,-0.06422598971099813,0.9166800349660668,-0.9809060246770649
262,V1,d09142021,OKSBe,interference,2.0,10.0,13.0,15.0,Kupka1.jpg,Lassc1.jpg,44.0,39.0,1.0,,1.0,0.0,15.0,13.0,0.68,-0.4683973100327971,5.0,-0.4846142860011688,-0.8349378662429777,0.35032358024180893
263,V1,d09142021,OKSBe,interference,2.0,11.0,20.0,63.0,Picb1n.jpg,Lewia1.jpg,50.0,55.0,0.0,,0.0,1.0,20.0,63.0,0.899,-0.31679026543559824,-5.0,-0.06422598971099813,0.28609759053081074,-0.3503235802418089
264,V1,d09142021,OKSBe,interference,3.0,12.0,41.0,56.0,Picae1.jpg,Clib1n.jpg,61.0,45.0,0.0,,1.0,0.0,56.0,41.0,1.168,-0.1305697403367558,16.0,0.7064858868209815,-0.414549569952807,1.1210354567737886
265,V1,d09142021,OKSBe,interference,3.0,13.0,20.0,63.0,Picb1n.jpg,Lewia1.jpg,50.0,55.0,0.0,,0.0,1.0,20.0,63.0,0.559,-0.5521619328467746,-5.0,-0.06422598971099813,0.28609759053081074,-0.3503235802418089
266,V1,d09142021,OKSBe,interference,3.0,14.0,33.0,67.0,Kline1.jpg,Picab1.jpg,41.0,53.0,0.0,,1.0,0.0,67.0,33.0,1.012,-0.23856379950188372,-12.0,-0.6948084341462542,0.1459681584340872,-0.8407765925803413
267,V1,d09142021,OKSBe,interference,3.0,15.0,13.0,15.0,Kupka1.jpg,Lassc1.jpg,44.0,39.0,0.0,,1.0,0.0,15.0,13.0,0.725,-0.4372451775813179,5.0,-0.4846142860011688,-0.8349378662429777,0.35032358024180893
268,V1,d09142021,OKSBe,interference,3.0,16.0,18.0,54.0,Krab1n.jpg,Rohla1.jpg,50.0,64.0,0.0,,0.0,1.0,18.0,54.0,0.798,-0.38670949604891824,-14.0,-0.06422598971099813,0.9166800349660668,-0.9809060246770649
269,V1,d09142021,OKSBe,interference,3.0,17.0,11.0,38.0,Clifa1.jpg,Krasa1.jpg,43.0,46.0,0.0,,0.0,0.0,38.0,11.0,1.086,-0.1873358483594512,-3.0,-0.5546790020495306,-0.3444848539044452,-0.21019414814508536
270,V1,d09142021,DyHLP,interference,1.0,0.0,32.0,60.0,Kupkb1.jpg,Kupc1n.jpg,50.0,58.0,1.0,,0.0,1.0,32.0,60.0,2.588,0.41516079057282484,-8.0,0.4194726404046067,0.6721035907110198,-0.2526309503064131
271,V1,d09142021,DyHLP,interference,1.0,1.0,57.0,1.0,Lassa1.jpg,Monda1.jpg,0.0,50.0,0.0,,1.0,0.0,1.0,57.0,3.771,1.259519326815206,-50.0,-1.1594707990104753,0.4194726404046067,-1.578943439415082
272,V1,d09142021,DyHLP,interference,1.0,2.0,18.0,19.0,Krab1n.jpg,Picc1n.jpg,50.0,56.0,0.0,,0.0,1.0,18.0,19.0,5.82,2.7219797163001087,-6.0,0.4194726404046067,0.6089458531344165,-0.18947321272980983
273,V1,d09142021,DyHLP,interference,1.0,3.0,21.0,29.0,Kupkc1.jpg,Klinb1.jpg,27.0,12.0,0.0,,1.0,0.0,29.0,21.0,4.457,1.7491473537486582,15.0,-0.306841341726331,-0.7805243735508556,0.4736830318245246
274,V1,d09142021,DyHLP,interference,1.0,4.0,37.0,34.0,Deka1n.jpg,Lasb1n.jpg,42.0,54.0,1.0,,0.0,1.0,37.0,34.0,1.242,-0.5455379328272136,-12.0,0.1668416900981936,0.5457881155578133,-0.37894642545961965
275,V1,d09142021,DyHLP,interference,1.0,5.0,62.0,44.0,Mona1n.jpg,Mackb1.jpg,28.0,38.0,1.0,,1.0,0.0,44.0,62.0,3.104,0.783452425992156,-10.0,-0.27526247293802936,0.040526214944987045,-0.3157886878830164
276,V1,d09142021,DyHLP,interference,2.0,6.0,37.0,34.0,Deka1n.jpg,Lasb1n.jpg,42.0,54.0,0.0,,0.0,1.0,37.0,34.0,1.337,-0.47773230227520497,-12.0,0.1668416900981936,0.5457881155578133,-0.37894642545961965
277,V1,d09142021,DyHLP,interference,2.0,7.0,57.0,1.0,Lassa1.jpg,Monda1.jpg,0.0,50.0,1.0,,1.0,0.0,1.0,57.0,1.152,-0.6097748459817482,-50.0,-1.1594707990104753,0.4194726404046067,-1.578943439415082
278,V1,d09142021,DyHLP,interference,2.0,8.0,21.0,29.0,Kupkc1.jpg,Klinb1.jpg,27.0,12.0,1.0,,1.0,0.0,29.0,21.0,1.824,-0.13013922776122372,15.0,-0.306841341726331,-0.7805243735508556,0.4736830318245246
279,V1,d09142021,DyHLP,interference,2.0,9.0,62.0,44.0,Mona1n.jpg,Mackb1.jpg,28.0,38.0,0.0,,1.0,0.0,44.0,62.0,1.413,-0.423487797833598,-10.0,-0.27526247293802936,0.040526214944987045,-0.3157886878830164
280,V1,d09142021,DyHLP,interference,2.0,10.0,18.0,19.0,Krab1n.jpg,Picc1n.jpg,50.0,56.0,1.0,,0.0,1.0,18.0,19.0,1.445,-0.4006480064897635,-6.0,0.4194726404046067,0.6089458531344165,-0.18947321272980983
281,V1,d09142021,DyHLP,interference,2.0,11.0,32.0,60.0,Kupkb1.jpg,Kupc1n.jpg,50.0,58.0,0.0,,0.0,1.0,32.0,60.0,0.979,-0.7332524679343533,-8.0,0.4194726404046067,0.6721035907110198,-0.2526309503064131
282,V1,d09142021,DyHLP,interference,3.0,12.0,37.0,34.0,Deka1n.jpg,Lasb1n.jpg,42.0,54.0,0.0,,0.0,1.0,37.0,34.0,1.068,-0.6697292982593136,-12.0,0.1668416900981936,0.5457881155578133,-0.37894642545961965
283,V1,d09142021,DyHLP,interference,3.0,13.0,32.0,60.0,Kupkb1.jpg,Kupc1n.jpg,50.0,58.0,0.0,,0.0,1.0,32.0,60.0,0.841,-0.8317490681046397,-8.0,0.4194726404046067,0.6721035907110198,-0.2526309503064131
284,V1,d09142021,DyHLP,interference,3.0,14.0,21.0,29.0,Kupkc1.jpg,Klinb1.jpg,27.0,12.0,0.0,,1.0,0.0,29.0,21.0,1.652,-0.2529031062343342,15.0,-0.306841341726331,-0.7805243735508556,0.4736830318245246
285,V1,d09142021,DyHLP,interference,3.0,15.0,62.0,44.0,Mona1n.jpg,Mackb1.jpg,28.0,38.0,0.0,,1.0,0.0,44.0,62.0,1.035,-0.693282833082643,-10.0,-0.27526247293802936,0.040526214944987045,-0.3157886878830164
286,V1,d09142021,DyHLP,interference,3.0,16.0,18.0,19.0,Krab1n.jpg,Picc1n.jpg,50.0,56.0,0.0,,0.0,1.0,18.0,19.0,1.28,-0.5184156806064102,-6.0,0.4194726404046067,0.6089458531344165,-0.18947321272980983
287,V1,d09142021,DyHLP,interference,3.0,17.0,57.0,1.0,Lassa1.jpg,Monda1.jpg,0.0,50.0,0.0,,1.0,0.0,1.0,57.0,1.106,-0.6426070460385102,-50.0,-1.1594707990104753,0.4194726404046067,-1.578943439415082
288,V1,d09172021,ARlDu,interference,1.0,0.0,46.0,57.0,Lewb1n.jpg,Lassa1.jpg,47.0,41.0,1.0,,0.0,1.0,46.0,57.0,1.415,0.3134257616403785,6.0,-0.14858159569787102,-0.4020857400165136,0.25350414431864254
289,V1,d09172021,ARlDu,interference,1.0,1.0,7.0,5.0,Macb1n.jpg,Pica1n.jpg,39.0,35.0,0.0,,0.0,1.0,7.0,5.0,2.135,1.7361920911882966,4.0,-0.48658712145606114,-0.6555898843351562,0.16900276287909505
290,V1,d09172021,ARlDu,interference,1.0,2.0,33.0,58.0,Kline1.jpg,Klinc1.jpg,54.0,50.0,0.0,,0.0,1.0,33.0,58.0,1.193,-0.125260523303563,4.0,0.14717323934054533,-0.021829523538549736,0.16900276287909505
291,V1,d09172021,ARlDu,interference,1.0,3.0,29.0,0.0,Klinb1.jpg,Monb1n.jpg,54.0,44.0,0.0,,1.0,0.0,0.0,29.0,1.075,-0.3584361162016943,10.0,0.14717323934054533,-0.2753336678571923,0.42250690719773765
292,V1,d09172021,ARlDu,interference,1.0,4.0,53.0,63.0,Macc1n.jpg,Lewia1.jpg,42.0,35.0,1.0,,1.0,0.0,63.0,53.0,0.973,-0.559994679554316,7.0,-0.3598350492967398,-0.6555898843351562,0.2957548350384164
293,V1,d09172021,ARlDu,interference,1.0,5.0,21.0,32.0,Kupkc1.jpg,Kupkb1.jpg,38.0,57.0,1.0,,1.0,0.0,32.0,21.0,1.465,0.4122289789700952,-19.0,-0.5288378121758349,0.2739253114998666,-0.8027631236757016
294,V1,d09172021,ARlDu,interference,2.0,6.0,21.0,32.0,Kupkc1.jpg,Kupkb1.jpg,38.0,57.0,0.0,,1.0,0.0,32.0,21.0,1.168,-0.17466213196842154,-19.0,-0.5288378121758349,0.2739253114998666,-0.8027631236757016
295,V1,d09172021,ARlDu,interference,2.0,7.0,29.0,0.0,Klinb1.jpg,Monb1n.jpg,54.0,44.0,1.0,,1.0,0.0,0.0,29.0,1.428,0.3391145981461046,10.0,0.14717323934054533,-0.2753336678571923,0.42250690719773765
296,V1,d09172021,ARlDu,interference,2.0,8.0,7.0,5.0,Macb1n.jpg,Pica1n.jpg,39.0,35.0,1.0,,0.0,1.0,7.0,5.0,1.167,-0.17663819631501565,4.0,-0.48658712145606114,-0.6555898843351562,0.16900276287909505
297,V1,d09172021,ARlDu,interference,2.0,9.0,33.0,58.0,Kline1.jpg,Klinc1.jpg,54.0,50.0,1.0,,0.0,1.0,33.0,58.0,1.264,0.01504004530463444,4.0,0.14717323934054533,-0.021829523538549736,0.16900276287909505
298,V1,d09172021,ARlDu,interference,2.0,10.0,46.0,57.0,Lewb1n.jpg,Lassa1.jpg,47.0,41.0,0.0,,0.0,1.0,46.0,57.0,1.187,-0.13711690938312898,6.0,-0.14858159569787102,-0.4020857400165136,0.25350414431864254
299,V1,d09172021,ARlDu,interference,2.0,11.0,53.0,63.0,Macc1n.jpg,Lewia1.jpg,42.0,35.0,0.0,,1.0,0.0,63.0,53.0,0.897,-0.7101755698954851,7.0,-0.3598350492967398,-0.6555898843351562,0.2957548350384164
300,V1,d09172021,ARlDu,interference,3.0,12.0,21.0,32.0,Kupkc1.jpg,Kupkb1.jpg,38.0,57.0,0.0,,1.0,0.0,32.0,21.0,1.112,-0.2853217353777037,-19.0,-0.5288378121758349,0.2739253114998666,-0.8027631236757016
301,V1,d09172021,ARlDu,interference,3.0,13.0,33.0,58.0,Kline1.jpg,Klinc1.jpg,54.0,50.0,0.0,,0.0,1.0,33.0,58.0,0.925,-0.6548457681908438,4.0,0.14717323934054533,-0.021829523538549736,0.16900276287909505
302,V1,d09172021,ARlDu,interference,3.0,14.0,46.0,57.0,Lewb1n.jpg,Lassa1.jpg,47.0,41.0,0.0,,0.0,1.0,46.0,57.0,0.783,-0.9354469054072388,6.0,-0.14858159569787102,-0.4020857400165136,0.25350414431864254
303,V1,d09172021,ARlDu,interference,3.0,15.0,7.0,5.0,Macb1n.jpg,Pica1n.jpg,39.0,35.0,0.0,,0.0,1.0,7.0,5.0,0.762,-0.9769442566857199,4.0,-0.48658712145606114,-0.6555898843351562,0.16900276287909505
304,V1,d09172021,ARlDu,interference,3.0,16.0,53.0,63.0,Macc1n.jpg,Lewia1.jpg,42.0,35.0,0.0,,1.0,0.0,63.0,53.0,0.845,-0.8129309159183905,7.0,-0.3598350492967398,-0.6555898843351562,0.2957548350384164
305,V1,d09172021,ARlDu,interference,3.0,17.0,29.0,0.0,Klinb1.jpg,Monb1n.jpg,54.0,44.0,0.0,,1.0,1.0,29.0,0.0,2.821,3.0917722329520085,10.0,0.14717323934054533,-0.2753336678571923,0.42250690719773765
306,V1,d09142021,BZQe3,interference,1.0,0.0,43.0,25.0,Clifb1.jpg,Dekob1.jpg,50.0,50.0,0.0,,1.0,1.0,43.0,25.0,0.257,-1.5123040066622537,0.0,-0.28567437903153275,-0.28567437903153275,0.0
307,V1,d09142021,BZQe3,interference,1.0,1.0,52.0,33.0,Dekoa1.jpg,Kline1.jpg,50.0,50.0,0.0,,0.0,0.0,33.0,52.0,0.385,-1.0818718347845722,0.0,-0.28567437903153275,-0.28567437903153275,0.0
308,V1,d09142021,BZQe3,interference,1.0,2.0,40.0,23.0,Vinc1n.jpg,Rohlb1.jpg,50.0,50.0,0.0,,0.0,1.0,40.0,23.0,0.433,-0.9204597703304415,0.0,-0.28567437903153275,-0.28567437903153275,0.0
309,V1,d09142021,BZQe3,interference,1.0,3.0,41.0,45.0,Picae1.jpg,Lasc1n.jpg,50.0,50.0,1.0,,1.0,0.0,45.0,41.0,0.552,-0.5202923605379091,0.0,-0.28567437903153275,-0.28567437903153275,0.0
310,V1,d09142021,BZQe3,interference,1.0,4.0,28.0,63.0,Pice1n.jpg,Lewia1.jpg,50.0,50.0,1.0,,0.0,1.0,28.0,63.0,0.785,0.26322870233318335,0.0,-0.28567437903153275,-0.28567437903153275,0.0
311,V1,d09142021,BZQe3,interference,1.0,5.0,17.0,3.0,Picaa1.jpg,Klib1n.jpg,50.0,50.0,1.0,,1.0,0.0,3.0,17.0,0.618,-0.29835077191347964,0.0,-0.28567437903153275,-0.28567437903153275,0.0
312,V1,d09142021,BZQe3,interference,2.0,6.0,17.0,3.0,Picaa1.jpg,Klib1n.jpg,50.0,50.0,0.0,,1.0,1.0,17.0,3.0,1.26,1.8605355901605178,0.0,-0.28567437903153275,-0.28567437903153275,0.0
313,V1,d09142021,BZQe3,interference,2.0,7.0,43.0,25.0,Clifb1.jpg,Dekob1.jpg,50.0,50.0,1.0,,1.0,0.0,25.0,43.0,0.397,-1.0415188186710393,0.0,-0.28567437903153275,-0.28567437903153275,0.0
314,V1,d09142021,BZQe3,interference,2.0,8.0,52.0,33.0,Dekoa1.jpg,Kline1.jpg,50.0,50.0,1.0,,0.0,1.0,52.0,33.0,1.108,1.349397386055771,0.0,-0.28567437903153275,-0.28567437903153275,0.0
315,V1,d09142021,BZQe3,interference,2.0,9.0,41.0,45.0,Picae1.jpg,Lasc1n.jpg,50.0,50.0,0.0,,1.0,1.0,41.0,45.0,0.671,-0.12012495074537691,0.0,-0.28567437903153275,-0.28567437903153275,0.0
316,V1,d09142021,BZQe3,interference,2.0,10.0,40.0,23.0,Vinc1n.jpg,Rohlb1.jpg,50.0,50.0,1.0,,0.0,0.0,23.0,40.0,0.373,-1.1222248508981048,0.0,-0.28567437903153275,-0.28567437903153275,0.0
317,V1,d09142021,BZQe3,interference,2.0,11.0,28.0,63.0,Pice1n.jpg,Lewia1.jpg,50.0,50.0,0.0,,0.0,0.0,63.0,28.0,0.566,-0.473213841738788,0.0,-0.28567437903153275,-0.28567437903153275,0.0
318,V1,d09142021,BZQe3,interference,3.0,12.0,41.0,45.0,Picae1.jpg,Lasc1n.jpg,50.0,50.0,0.0,,1.0,1.0,41.0,45.0,0.999,0.9828574896911824,0.0,-0.28567437903153275,-0.28567437903153275,0.0
319,V1,d09142021,BZQe3,interference,3.0,13.0,17.0,3.0,Picaa1.jpg,Klib1n.jpg,50.0,50.0,0.0,,1.0,1.0,17.0,3.0,0.601,-0.3555175447409843,0.0,-0.28567437903153275,-0.28567437903153275,0.0
320,V1,d09142021,BZQe3,interference,3.0,14.0,43.0,25.0,Clifb1.jpg,Dekob1.jpg,50.0,50.0,0.0,,1.0,1.0,43.0,25.0,1.102,1.3292208779990047,0.0,-0.28567437903153275,-0.28567437903153275,0.0
321,V1,d09142021,BZQe3,interference,3.0,15.0,28.0,63.0,Pice1n.jpg,Lewia1.jpg,50.0,50.0,0.0,,0.0,0.0,63.0,28.0,0.976,0.9055142088069114,0.0,-0.28567437903153275,-0.28567437903153275,0.0
322,V1,d09142021,BZQe3,interference,3.0,16.0,40.0,23.0,Vinc1n.jpg,Rohlb1.jpg,50.0,50.0,0.0,,0.0,0.0,23.0,40.0,0.68,-0.08986018866022738,0.0,-0.28567437903153275,-0.28567437903153275,0.0
323,V1,d09142021,BZQe3,interference,3.0,17.0,52.0,33.0,Dekoa1.jpg,Kline1.jpg,50.0,50.0,0.0,,0.0,0.0,33.0,52.0,0.958,0.8449846846366122,0.0,-0.28567437903153275,-0.28567437903153275,0.0
324,V1,d09142021,IVM93,interference,1.0,0.0,47.0,37.0,Vina1n.jpg,Deka1n.jpg,79.0,12.0,1.0,,0.0,1.0,47.0,37.0,3.245,0.9461538153588473,67.0,0.7261983219752389,-1.0063341731823041,1.732532495157543
325,V1,d09142021,IVM93,interference,1.0,1.0,27.0,66.0,Gustc1.jpg,Vinca1.jpg,52.0,61.0,1.0,,1.0,,,,,,-9.0,0.0280135851207066,0.260741830738884,-0.23272824561817743
326,V1,d09142021,IVM93,interference,1.0,1.0,27.0,66.0,Gustc1.jpg,Vinca1.jpg,52.0,61.0,1.0,,1.0,1.0,27.0,66.0,0.521,-1.3208425624106495,-9.0,0.0280135851207066,0.260741830738884,-0.23272824561817743
327,V1,d09142021,IVM93,interference,1.0,2.0,51.0,57.0,Lewic1.jpg,Lassa1.jpg,70.0,24.0,1.0,,0.0,1.0,51.0,57.0,5.102,2.491606191833868,46.0,0.49347007635706147,-0.6960298456914009,1.1894999220484623
328,V1,d09142021,IVM93,interference,1.0,3.0,40.0,62.0,Vinc1n.jpg,Mona1n.jpg,15.0,68.0,0.0,,1.0,0.0,62.0,40.0,1.961,-0.12243038032985812,-53.0,-0.9287580913095783,0.4417526884419109,-1.3705107797514893
329,V1,d09142021,IVM93,interference,1.0,4.0,28.0,56.0,Pice1n.jpg,Clib1n.jpg,78.0,70.0,0.0,,0.0,1.0,28.0,56.0,2.571,0.3852303356904771,8.0,0.7003396280176636,0.49347007635706147,0.2068695516606021
330,V1,d09142021,IVM93,interference,1.0,5.0,1.0,30.0,Monda1.jpg,Kraa1n.jpg,88.0,82.0,0.0,,1.0,0.0,30.0,1.0,3.217,0.922851356262832,6.0,0.9589265675934163,0.8037744038479647,0.1551521637454516
331,V1,d09142021,IVM93,interference,2.0,6.0,40.0,62.0,Vinc1n.jpg,Mona1n.jpg,15.0,68.0,1.0,,1.0,0.0,62.0,40.0,1.687,-0.3504615871980087,-53.0,-0.9287580913095783,0.4417526884419109,-1.3705107797514893
332,V1,d09142021,IVM93,interference,2.0,7.0,1.0,30.0,Monda1.jpg,Kraa1n.jpg,88.0,82.0,1.0,,1.0,0.0,30.0,1.0,3.162,0.8770786687528016,6.0,0.9589265675934163,0.8037744038479647,0.1551521637454516
333,V1,d09142021,IVM93,interference,2.0,8.0,27.0,66.0,Gustc1.jpg,Vinca1.jpg,52.0,61.0,0.0,,1.0,1.0,27.0,66.0,3.374,1.0535115733369183,-9.0,0.0280135851207066,0.260741830738884,-0.23272824561817743
334,V1,d09142021,IVM93,interference,2.0,9.0,51.0,57.0,Lewic1.jpg,Lassa1.jpg,70.0,24.0,0.0,,0.0,1.0,51.0,57.0,1.734,-0.3113467451439829,46.0,0.49347007635706147,-0.6960298456914009,1.1894999220484623
335,V1,d09142021,IVM93,interference,2.0,10.0,28.0,56.0,Pice1n.jpg,Clib1n.jpg,78.0,70.0,1.0,,0.0,1.0,28.0,56.0,1.802,-0.2547550587679455,8.0,0.7003396280176636,0.49347007635706147,0.2068695516606021
336,V1,d09142021,IVM93,interference,2.0,11.0,47.0,37.0,Vina1n.jpg,Deka1n.jpg,79.0,12.0,0.0,,0.0,1.0,47.0,37.0,2.894,0.6540408459766546,67.0,0.7261983219752389,-1.0063341731823041,1.732532495157543
337,V1,d09142021,IVM93,interference,3.0,12.0,1.0,30.0,Monda1.jpg,Kraa1n.jpg,88.0,82.0,0.0,,1.0,0.0,30.0,1.0,1.653,-0.3787574303860274,6.0,0.9589265675934163,0.8037744038479647,0.1551521637454516
338,V1,d09142021,IVM93,interference,3.0,13.0,51.0,57.0,Lewic1.jpg,Lassa1.jpg,70.0,24.0,0.0,,0.0,1.0,51.0,57.0,1.342,-0.6375811724881982,46.0,0.49347007635706147,-0.6960298456914009,1.1894999220484623
339,V1,d09142021,IVM93,interference,3.0,14.0,28.0,56.0,Pice1n.jpg,Clib1n.jpg,78.0,70.0,0.0,,0.0,1.0,28.0,56.0,1.098,-0.8406454588963322,8.0,0.7003396280176636,0.49347007635706147,0.2068695516606021
340,V1,d09142021,IVM93,interference,3.0,15.0,40.0,62.0,Vinc1n.jpg,Mona1n.jpg,15.0,68.0,0.0,,1.0,0.0,62.0,40.0,0.806,-1.0836568180404926,-53.0,-0.9287580913095783,0.4417526884419109,-1.3705107797514893
341,V1,d09142021,IVM93,interference,3.0,16.0,47.0,37.0,Vina1n.jpg,Deka1n.jpg,79.0,12.0,0.0,,0.0,1.0,47.0,37.0,0.691,-1.1793633464705562,67.0,0.7261983219752389,-1.0063341731823041,1.732532495157543
342,V1,d09142021,IVM93,interference,3.0,17.0,27.0,66.0,Gustc1.jpg,Vinca1.jpg,52.0,61.0,0.0,,1.0,1.0,27.0,66.0,1.086,-0.8506322270803389,-9.0,0.0280135851207066,0.260741830738884,-0.23272824561817743
343,V1,d09142021,aOuee,interference,1.0,0.0,19.0,21.0,Picc1n.jpg,Kupkc1.jpg,73.0,59.0,1.0,,1.0,0.0,21.0,19.0,2.484,1.6141318490835967,14.0,0.6916826207007691,0.003278116685785798,0.6884045040149833
344,V1,d09142021,aOuee,interference,1.0,1.0,56.0,62.0,Clib1n.jpg,Mona1n.jpg,51.0,62.0,0.0,,0.0,0.0,62.0,56.0,1.266,-0.3240994281268736,-11.0,-0.3900958856084904,0.15079336754613937,-0.5408892531546298
345,V1,d09142021,aOuee,interference,1.0,2.0,14.0,10.0,Grib1n.jpg,Vinb1n.jpg,65.0,66.0,1.0,,0.0,0.0,10.0,14.0,2.307,1.3324676979618781,-1.0,0.298308618406493,0.3474803686932775,-0.0491717502867845
346,V1,d09142021,aOuee,interference,1.0,3.0,38.0,22.0,Krasa1.jpg,Klina1.jpg,63.0,60.0,0.0,,1.0,0.0,22.0,38.0,1.579,0.1739846357211372,3.0,0.1999651178329239,0.05244986697257032,0.14751525086035358
347,V1,d09142021,aOuee,interference,1.0,4.0,32.0,63.0,Kupkb1.jpg,Lewia1.jpg,54.0,57.0,1.0,,0.0,1.0,32.0,63.0,1.098,-0.5914416732593522,-3.0,-0.24258063474813682,-0.09506538388778325,-0.14751525086035355
348,V1,d09142021,aOuee,interference,1.0,5.0,31.0,47.0,Picac1.jpg,Vina1n.jpg,69.0,60.0,0.0,,1.0,1.0,31.0,47.0,2.285,1.2974585944326253,9.0,0.494995619553631,0.05244986697257032,0.4425457525810607
349,V1,d09142021,aOuee,interference,2.0,6.0,19.0,21.0,Picc1n.jpg,Kupkc1.jpg,73.0,59.0,0.0,,1.0,0.0,21.0,19.0,2.143,1.0714907443801724,14.0,0.6916826207007691,0.003278116685785798,0.6884045040149833
350,V1,d09142021,aOuee,interference,2.0,7.0,14.0,10.0,Grib1n.jpg,Vinb1n.jpg,65.0,66.0,0.0,,0.0,0.0,10.0,14.0,1.27,-0.3177341365761003,-1.0,0.298308618406493,0.3474803686932775,-0.0491717502867845
351,V1,d09142021,aOuee,interference,2.0,8.0,38.0,22.0,Krasa1.jpg,Klina1.jpg,63.0,60.0,1.0,,1.0,0.0,22.0,38.0,0.779,-1.0990736744335232,3.0,0.1999651178329239,0.05244986697257032,0.14751525086035358
352,V1,d09142021,aOuee,interference,2.0,9.0,31.0,47.0,Picac1.jpg,Vina1n.jpg,69.0,60.0,1.0,,1.0,1.0,31.0,47.0,2.669,1.908526583306862,9.0,0.494995619553631,0.05244986697257032,0.4425457525810607
353,V1,d09142021,aOuee,interference,2.0,10.0,56.0,62.0,Clib1n.jpg,Mona1n.jpg,51.0,62.0,1.0,,0.0,0.0,62.0,56.0,1.267,-0.32250810523918044,-11.0,-0.3900958856084904,0.15079336754613937,-0.5408892531546298
354,V1,d09142021,aOuee,interference,2.0,11.0,32.0,63.0,Kupkb1.jpg,Lewia1.jpg,54.0,57.0,0.0,,0.0,1.0,32.0,63.0,1.265,-0.3256907510145671,-3.0,-0.24258063474813682,-0.09506538388778325,-0.14751525086035355
355,V1,d09142021,aOuee,interference,3.0,12.0,31.0,47.0,Picac1.jpg,Vina1n.jpg,69.0,60.0,0.0,,1.0,1.0,31.0,47.0,1.383,-0.13791465026675453,9.0,0.494995619553631,0.05244986697257032,0.4425457525810607
356,V1,d09142021,aOuee,interference,3.0,13.0,19.0,21.0,Picc1n.jpg,Kupkc1.jpg,73.0,59.0,0.0,,1.0,0.0,21.0,19.0,1.051,-0.6662338489809387,14.0,0.6916826207007691,0.003278116685785798,0.6884045040149833
357,V1,d09142021,aOuee,interference,3.0,14.0,32.0,63.0,Kupkb1.jpg,Lewia1.jpg,54.0,57.0,0.0,,0.0,1.0,32.0,63.0,0.707,-1.2136489223474427,-3.0,-0.24258063474813682,-0.09506538388778325,-0.14751525086035355
358,V1,d09142021,aOuee,interference,3.0,15.0,56.0,62.0,Clib1n.jpg,Mona1n.jpg,51.0,62.0,0.0,,0.0,0.0,62.0,56.0,0.743,-1.156361298390483,-11.0,-0.3900958856084904,0.15079336754613937,-0.5408892531546298
359,V1,d09142021,aOuee,interference,3.0,16.0,38.0,22.0,Krasa1.jpg,Klina1.jpg,63.0,60.0,0.0,,1.0,0.0,22.0,38.0,0.942,-0.8396880437395112,3.0,0.1999651178329239,0.05244986697257032,0.14751525086035358
360,V1,d09142021,aOuee,interference,3.0,17.0,14.0,10.0,Grib1n.jpg,Vinb1n.jpg,65.0,66.0,0.0,,0.0,0.0,10.0,14.0,1.216,-0.40366557251153995,-1.0,0.298308618406493,0.3474803686932775,-0.0491717502867845
361,V1,d09142021,7DxUX,interference,1.0,0.0,18.0,39.0,Krab1n.jpg,Kupb1n.jpg,63.0,61.0,0.0,,1.0,0.0,39.0,18.0,1.921,0.5216759103853416,2.0,0.499809316014636,0.38312231616686115,0.11668699984777486
362,V1,d09142021,7DxUX,interference,1.0,1.0,24.0,29.0,Lewa1n.jpg,Klinb1.jpg,48.0,61.0,1.0,,1.0,0.0,29.0,24.0,1.354,-0.13240570403637766,-13.0,-0.37534318284367574,0.38312231616686115,-0.7584654990105368
363,V1,d09142021,7DxUX,interference,1.0,2.0,60.0,1.0,Kupc1n.jpg,Monda1.jpg,60.0,39.0,0.0,,0.0,0.0,1.0,60.0,3.131,1.917511454389363,21.0,0.32477881624297367,-0.9004346821586628,1.2252134984016365
364,V1,d09142021,7DxUX,interference,1.0,3.0,31.0,10.0,Picac1.jpg,Vinb1n.jpg,67.0,40.0,1.0,,0.0,1.0,31.0,10.0,1.161,-0.3550472412204903,27.0,0.7331833157101858,-0.8420911822347754,1.575274497944961
365,V1,d09142021,7DxUX,interference,1.0,4.0,35.0,3.0,Gusa1n.jpg,Klib1n.jpg,66.0,65.0,1.0,,0.0,1.0,35.0,3.0,1.979,0.5885837298499972,1.0,0.6748398157862984,0.6164963158624109,0.05834349992388743
366,V1,d09142021,7DxUX,interference,1.0,5.0,19.0,52.0,Picc1n.jpg,Dekoa1.jpg,41.0,44.0,0.0,,1.0,1.0,19.0,52.0,2.895,1.6452658441538681,-3.0,-0.7837476823108879,-0.6087171825392256,-0.1750304997716623
367,V1,d09142021,7DxUX,interference,2.0,6.0,60.0,1.0,Kupc1n.jpg,Monda1.jpg,60.0,39.0,1.0,,0.0,0.0,1.0,60.0,2.833,1.57374369231234,21.0,0.32477881624297367,-0.9004346821586628,1.2252134984016365
368,V1,d09142021,7DxUX,interference,2.0,7.0,18.0,39.0,Krab1n.jpg,Kupb1n.jpg,63.0,61.0,1.0,,1.0,0.0,39.0,18.0,1.195,-0.3158254160170715,2.0,0.499809316014636,0.38312231616686115,0.11668699984777486
369,V1,d09142021,7DxUX,interference,2.0,8.0,31.0,10.0,Picac1.jpg,Vinb1n.jpg,67.0,40.0,0.0,,0.0,1.0,31.0,10.0,0.823,-0.744958327066242,27.0,0.7331833157101858,-0.8420911822347754,1.575274497944961
370,V1,d09142021,7DxUX,interference,2.0,9.0,35.0,3.0,Gusa1n.jpg,Klib1n.jpg,66.0,65.0,0.0,,0.0,1.0,35.0,3.0,0.869,-0.6918935047322047,1.0,0.6748398157862984,0.6164963158624109,0.05834349992388743
371,V1,d09142021,7DxUX,interference,2.0,10.0,19.0,52.0,Picc1n.jpg,Dekoa1.jpg,41.0,44.0,1.0,,1.0,1.0,19.0,52.0,2.602,1.3072659975479355,-3.0,-0.7837476823108879,-0.6087171825392256,-0.1750304997716623
372,V1,d09142021,7DxUX,interference,2.0,11.0,24.0,29.0,Lewa1n.jpg,Klinb1.jpg,48.0,61.0,0.0,,1.0,0.0,29.0,24.0,1.355,-0.1312521209421596,-13.0,-0.37534318284367574,0.38312231616686115,-0.7584654990105368
373,V1,d09142021,7DxUX,interference,3.0,12.0,18.0,39.0,Krab1n.jpg,Kupb1n.jpg,63.0,61.0,0.0,,1.0,0.0,39.0,18.0,0.672,-0.91914937429319,2.0,0.499809316014636,0.38312231616686115,0.11668699984777486
374,V1,d09142021,7DxUX,interference,3.0,13.0,19.0,52.0,Picc1n.jpg,Dekoa1.jpg,41.0,44.0,0.0,,1.0,1.0,19.0,52.0,0.712,-0.8730060505244621,-3.0,-0.7837476823108879,-0.6087171825392256,-0.1750304997716623
375,V1,d09142021,7DxUX,interference,3.0,14.0,24.0,29.0,Lewa1n.jpg,Klinb1.jpg,48.0,61.0,0.0,,1.0,0.0,29.0,24.0,0.812,-0.757647741102642,-13.0,-0.37534318284367574,0.38312231616686115,-0.7584654990105368
376,V1,d09142021,7DxUX,interference,3.0,15.0,60.0,1.0,Kupc1n.jpg,Monda1.jpg,60.0,39.0,0.0,,0.0,0.0,1.0,60.0,0.813,-0.7564941580084239,21.0,0.32477881624297367,-0.9004346821586628,1.2252134984016365
377,V1,d09142021,7DxUX,interference,3.0,16.0,31.0,10.0,Picac1.jpg,Vinb1n.jpg,67.0,40.0,0.0,,0.0,1.0,31.0,10.0,0.695,-0.8926169631261716,27.0,0.7331833157101858,-0.8420911822347754,1.575274497944961
378,V1,d09142021,7DxUX,interference,3.0,17.0,35.0,3.0,Gusa1n.jpg,Klib1n.jpg,66.0,65.0,0.0,,0.0,1.0,35.0,3.0,0.616,-0.9837500275694092,1.0,0.6748398157862984,0.6164963158624109,0.05834349992388743
379,V1,d09142021,N8OXC,interference,1.0,0.0,65.0,53.0,Roha1n.jpg,Macc1n.jpg,58.0,50.0,0.0,,0.0,1.0,65.0,53.0,1.143,-0.44641727719252966,8.0,0.2160987313547938,-0.16109178155539153,0.37719051291018535
380,V1,d09142021,N8OXC,interference,1.0,1.0,39.0,63.0,Kupb1n.jpg,Lewia1.jpg,65.0,35.0,1.0,,1.0,0.0,63.0,39.0,1.31,0.04495230729694073,30.0,0.546140430151206,-0.8683239932619891,1.414464423413195
381,V1,d09142021,N8OXC,interference,1.0,2.0,11.0,29.0,Clifa1.jpg,Klinb1.jpg,65.0,65.0,1.0,,0.0,1.0,11.0,29.0,1.978,2.0104306452548215,0.0,0.546140430151206,0.546140430151206,0.0
382,V1,d09142021,N8OXC,interference,1.0,3.0,37.0,6.0,Deka1n.jpg,Gusc1n.jpg,62.0,64.0,0.0,,0.0,0.0,6.0,37.0,2.023,2.142835623111266,-2.0,0.40469398780988647,0.4989916160374328,-0.09429762822754634
383,V1,d09142021,N8OXC,interference,1.0,4.0,33.0,54.0,Kline1.jpg,Rohla1.jpg,62.0,56.0,0.0,,1.0,0.0,54.0,33.0,0.734,-1.6498314092655437,6.0,0.40469398780988647,0.12180110312724746,0.282892884682639
384,V1,d09142021,N8OXC,interference,1.0,5.0,34.0,42.0,Lasb1n.jpg,Mackc1.jpg,45.0,66.0,1.0,,1.0,1.0,34.0,42.0,1.231,-0.18749198716214988,-21.0,-0.39683585212425737,0.5932892442649791,-0.9901250963892365
385,V1,d09142021,N8OXC,interference,2.0,6.0,65.0,53.0,Roha1n.jpg,Macc1n.jpg,58.0,50.0,1.0,,0.0,1.0,65.0,53.0,0.884,-1.2084814830773967,8.0,0.2160987313547938,-0.16109178155539153,0.37719051291018535
386,V1,d09142021,N8OXC,interference,2.0,7.0,39.0,63.0,Kupb1n.jpg,Lewia1.jpg,65.0,35.0,0.0,,1.0,1.0,39.0,63.0,1.342,0.13910695821707883,30.0,0.546140430151206,-0.8683239932619891,1.414464423413195
387,V1,d09142021,N8OXC,interference,2.0,8.0,33.0,54.0,Kline1.jpg,Rohla1.jpg,62.0,56.0,1.0,,1.0,1.0,33.0,54.0,1.115,-0.5288025967476505,6.0,0.40469398780988647,0.12180110312724746,0.282892884682639
388,V1,d09142021,N8OXC,interference,2.0,9.0,37.0,6.0,Deka1n.jpg,Gusc1n.jpg,62.0,64.0,1.0,,0.0,0.0,6.0,37.0,1.525,0.6775538681666176,-2.0,0.40469398780988647,0.4989916160374328,-0.09429762822754634
389,V1,d09142021,N8OXC,interference,2.0,10.0,11.0,29.0,Clifa1.jpg,Klinb1.jpg,65.0,65.0,0.0,,0.0,1.0,11.0,29.0,1.046,-0.7318235627941979,0.0,0.546140430151206,0.546140430151206,0.0
390,V1,d09142021,N8OXC,interference,2.0,11.0,34.0,42.0,Lasb1n.jpg,Mackc1.jpg,45.0,66.0,0.0,,1.0,1.0,34.0,42.0,1.216,-0.23162697978096494,-21.0,-0.39683585212425737,0.5932892442649791,-0.9901250963892365
391,V1,d09142021,N8OXC,interference,3.0,12.0,65.0,53.0,Roha1n.jpg,Macc1n.jpg,58.0,50.0,0.0,,0.0,1.0,65.0,53.0,1.137,-0.46407127424005556,8.0,0.2160987313547938,-0.16109178155539153,0.37719051291018535
392,V1,d09142021,N8OXC,interference,3.0,13.0,37.0,6.0,Deka1n.jpg,Gusc1n.jpg,62.0,64.0,0.0,,0.0,0.0,6.0,37.0,1.144,-0.44347494435127566,-2.0,0.40469398780988647,0.4989916160374328,-0.09429762822754634
393,V1,d09142021,N8OXC,interference,3.0,14.0,11.0,29.0,Clifa1.jpg,Klinb1.jpg,65.0,65.0,0.0,,0.0,1.0,11.0,29.0,1.497,0.5951685486114974,0.0,0.546140430151206,0.546140430151206,0.0
394,V1,d09142021,N8OXC,interference,3.0,15.0,39.0,63.0,Kupb1n.jpg,Lewia1.jpg,65.0,35.0,0.0,,1.0,1.0,39.0,63.0,1.699,1.1895197825448685,30.0,0.546140430151206,-0.8683239932619891,1.414464423413195
395,V1,d09142021,N8OXC,interference,3.0,16.0,33.0,54.0,Kline1.jpg,Rohla1.jpg,62.0,56.0,0.0,,1.0,0.0,54.0,33.0,1.161,-0.39345528604995195,6.0,0.40469398780988647,0.12180110312724746,0.282892884682639
396,V1,d09142021,N8OXC,interference,3.0,17.0,34.0,42.0,Lasb1n.jpg,Mackc1.jpg,45.0,66.0,0.0,,1.0,1.0,34.0,42.0,1.12,-0.5140909325413786,-21.0,-0.39683585212425737,0.5932892442649791,-0.9901250963892365
397,V1,d09142021,fox3f,interference,1.0,0.0,51.0,48.0,Lewic1.jpg,Maca1n.jpg,55.0,37.0,0.0,,0.0,1.0,51.0,48.0,3.239,1.632687700471904,18.0,0.08821636826306069,-0.836770794106895,0.9249871623699557
398,V1,d09142021,fox3f,interference,1.0,1.0,67.0,69.0,Picab1.jpg,Picad1.jpg,59.0,50.0,1.0,,0.0,0.0,69.0,67.0,2.413,0.7325541818343975,9.0,0.2937690710119397,-0.16872451017303813,0.46249358118497785
399,V1,d09142021,fox3f,interference,1.0,2.0,68.0,59.0,Mondb1.jpg,Macka1.jpg,50.0,58.0,1.0,,1.0,0.0,59.0,68.0,2.322,0.6333869297811131,-8.0,-0.16872451017303813,0.24238089532471999,-0.4111054054977581
400,V1,d09142021,fox3f,interference,1.0,3.0,64.0,25.0,Vincb1.jpg,Dekob1.jpg,57.0,38.0,0.0,,1.0,1.0,64.0,25.0,3.745,2.1841012118890695,19.0,0.19099271963750022,-0.7853826184196753,0.9763753380571755
401,V1,d09142021,fox3f,interference,1.0,4.0,4.0,9.0,Krasb1.jpg,Klind1.jpg,45.0,60.0,1.0,,1.0,0.0,9.0,4.0,1.578,-0.17738708700618078,-15.0,-0.42566538860913694,0.3451572466991595,-0.7708226353082964
402,V1,d09142021,fox3f,interference,1.0,5.0,49.0,56.0,Lewc1n.jpg,Clib1n.jpg,37.0,63.0,0.0,,0.0,1.0,49.0,56.0,2.603,0.9396066861214756,-26.0,-0.836770794106895,0.49932177376081877,-1.3360925678677138
403,V1,d09142021,fox3f,interference,2.0,6.0,51.0,48.0,Lewic1.jpg,Maca1n.jpg,55.0,37.0,1.0,,0.0,1.0,51.0,48.0,0.973,-0.836685850657139,18.0,0.08821636826306069,-0.836770794106895,0.9249871623699557
404,V1,d09142021,fox3f,interference,2.0,7.0,4.0,9.0,Krasb1.jpg,Klind1.jpg,45.0,60.0,0.0,,1.0,0.0,9.0,4.0,1.987,0.2683206722223182,-15.0,-0.42566538860913694,0.3451572466991595,-0.7708226353082964
405,V1,d09142021,fox3f,interference,2.0,8.0,49.0,56.0,Lewc1n.jpg,Clib1n.jpg,37.0,63.0,1.0,,0.0,1.0,49.0,56.0,2.396,0.714028431450817,-26.0,-0.836770794106895,0.49932177376081877,-1.3360925678677138
406,V1,d09142021,fox3f,interference,2.0,9.0,67.0,69.0,Picab1.jpg,Picad1.jpg,59.0,50.0,0.0,,0.0,0.0,69.0,67.0,2.063,0.35114167393714935,9.0,0.2937690710119397,-0.16872451017303813,0.46249358118497785
407,V1,d09142021,fox3f,interference,2.0,10.0,68.0,59.0,Mondb1.jpg,Macka1.jpg,50.0,58.0,0.0,,1.0,0.0,59.0,68.0,1.459,-0.3070673396912453,-8.0,-0.16872451017303813,0.24238089532471999,-0.4111054054977581
408,V1,d09142021,fox3f,interference,2.0,11.0,64.0,25.0,Vincb1.jpg,Dekob1.jpg,57.0,38.0,1.0,,1.0,1.0,64.0,25.0,1.362,-0.41277309187991124,19.0,0.19099271963750022,-0.7853826184196753,0.9763753380571755
409,V1,d09142021,fox3f,interference,3.0,12.0,49.0,56.0,Lewc1n.jpg,Clib1n.jpg,37.0,63.0,0.0,,0.0,1.0,49.0,56.0,0.779,-1.048097355034471,-26.0,-0.836770794106895,0.49932177376081877,-1.3360925678677138
410,V1,d09142021,fox3f,interference,3.0,13.0,64.0,25.0,Vincb1.jpg,Dekob1.jpg,57.0,38.0,0.0,,1.0,1.0,64.0,25.0,0.759,-1.0698923554857422,19.0,0.19099271963750022,-0.7853826184196753,0.9763753380571755
411,V1,d09142021,fox3f,interference,3.0,14.0,4.0,9.0,Krasb1.jpg,Klind1.jpg,45.0,60.0,0.0,,1.0,0.0,9.0,4.0,0.574,-1.2714961096600021,-15.0,-0.42566538860913694,0.3451572466991595,-0.7708226353082964
412,V1,d09142021,fox3f,interference,3.0,15.0,68.0,59.0,Mondb1.jpg,Macka1.jpg,50.0,58.0,0.0,,1.0,0.0,59.0,68.0,1.474,-0.29072108935279184,-8.0,-0.16872451017303813,0.24238089532471999,-0.4111054054977581
413,V1,d09142021,fox3f,interference,3.0,16.0,67.0,69.0,Picab1.jpg,Picad1.jpg,59.0,50.0,0.0,,0.0,0.0,69.0,67.0,0.879,-0.9391223527781143,9.0,0.2937690710119397,-0.16872451017303813,0.46249358118497785
414,V1,d09142021,fox3f,interference,3.0,17.0,51.0,48.0,Lewic1.jpg,Maca1n.jpg,55.0,37.0,0.0,,0.0,1.0,51.0,48.0,0.729,-1.1025848561626495,18.0,0.08821636826306069,-0.836770794106895,0.9249871623699557
415,V1,d09172021,qkwlL,interference,1.0,0.0,36.0,51.0,Gustb1.jpg,Lewic1.jpg,55.0,55.0,1.0,,1.0,1.0,36.0,51.0,3.489,0.16968761093080703,0.0,0.0812013604155496,0.0812013604155496,0.0
416,V1,d09172021,qkwlL,interference,1.0,1.0,0.0,56.0,Monb1n.jpg,Clib1n.jpg,47.0,55.0,1.0,,1.0,0.0,56.0,0.0,5.717,1.680600565808492,-8.0,-0.6683496588049077,0.0812013604155496,-0.7495510192204573
417,V1,d09172021,qkwlL,interference,1.0,2.0,2.0,10.0,Dekb1n.jpg,Vinb1n.jpg,54.0,54.0,0.0,,1.0,0.0,10.0,2.0,4.152,0.6192995001067072,0.0,-0.012492516987007578,-0.012492516987007578,0.0
418,V1,d09172021,qkwlL,interference,1.0,3.0,18.0,48.0,Krab1n.jpg,Maca1n.jpg,57.0,60.0,1.0,,0.0,0.0,48.0,18.0,6.721,2.361460802207593,-3.0,0.2685891152206639,0.5496707474283354,-0.2810816322076715
419,V1,d09172021,qkwlL,interference,1.0,4.0,64.0,32.0,Vincb1.jpg,Kupkb1.jpg,56.0,55.0,0.0,,0.0,1.0,64.0,32.0,3.87,0.42806186398664114,1.0,0.17489523781810676,0.0812013604155496,0.09369387740255716
420,V1,d09172021,qkwlL,interference,1.0,5.0,35.0,20.0,Gusa1n.jpg,Picb1n.jpg,54.0,53.0,0.0,,0.0,1.0,35.0,20.0,5.456,1.5036040302505589,1.0,-0.012492516987007578,-0.10618639438956474,0.09369387740255716
421,V1,d09172021,qkwlL,interference,2.0,6.0,18.0,48.0,Krab1n.jpg,Maca1n.jpg,57.0,60.0,0.0,,0.0,0.0,48.0,18.0,1.874,-0.9255208370617698,-3.0,0.2685891152206639,0.5496707474283354,-0.2810816322076715
422,V1,d09172021,qkwlL,interference,2.0,7.0,64.0,32.0,Vincb1.jpg,Kupkb1.jpg,56.0,55.0,1.0,,0.0,1.0,64.0,32.0,2.152,-0.736995791524967,1.0,0.17489523781810676,0.0812013604155496,0.09369387740255716
423,V1,d09172021,qkwlL,interference,2.0,8.0,36.0,51.0,Gustb1.jpg,Lewic1.jpg,55.0,55.0,0.0,,1.0,1.0,36.0,51.0,2.734,-0.34231386166014993,0.0,0.0812013604155496,0.0812013604155496,0.0
424,V1,d09172021,qkwlL,interference,2.0,9.0,35.0,20.0,Gusa1n.jpg,Picb1n.jpg,54.0,53.0,1.0,,0.0,1.0,35.0,20.0,2.013,-0.8312583142933685,1.0,-0.012492516987007578,-0.10618639438956474,0.09369387740255716
425,V1,d09172021,qkwlL,interference,2.0,10.0,2.0,10.0,Dekb1n.jpg,Vinb1n.jpg,54.0,54.0,1.0,,1.0,0.0,10.0,2.0,1.957,-0.8692345824590553,0.0,-0.012492516987007578,-0.012492516987007578,0.0
426,V1,d09172021,qkwlL,interference,2.0,11.0,0.0,56.0,Monb1n.jpg,Clib1n.jpg,47.0,55.0,0.0,,1.0,0.0,56.0,0.0,2.093,-0.7770065026281016,-8.0,-0.6683496588049077,0.0812013604155496,-0.7495510192204573
427,V1,d09172021,qkwlL,interference,3.0,12.0,36.0,51.0,Gustb1.jpg,Lewic1.jpg,55.0,55.0,0.0,,1.0,1.0,36.0,51.0,3.758,0.3521093276552673,0.0,0.0812013604155496,0.0812013604155496,0.0
428,V1,d09172021,qkwlL,interference,3.0,13.0,0.0,56.0,Monb1n.jpg,Clib1n.jpg,47.0,55.0,0.0,,1.0,0.0,56.0,0.0,2.438,-0.5430455648216376,-8.0,-0.6683496588049077,0.0812013604155496,-0.7495510192204573
429,V1,d09172021,qkwlL,interference,3.0,14.0,35.0,20.0,Gusa1n.jpg,Picb1n.jpg,54.0,53.0,0.0,,0.0,1.0,35.0,20.0,3.323,0.05711510172537811,1.0,-0.012492516987007578,-0.10618639438956474,0.09369387740255716
430,V1,d09172021,qkwlL,interference,3.0,15.0,64.0,32.0,Vincb1.jpg,Kupkb1.jpg,56.0,55.0,0.0,,0.0,1.0,64.0,32.0,1.759,-1.0035078163305913,1.0,0.17489523781810676,0.0812013604155496,0.09369387740255716
431,V1,d09172021,qkwlL,interference,3.0,16.0,2.0,10.0,Dekb1n.jpg,Vinb1n.jpg,54.0,54.0,0.0,,1.0,0.0,10.0,2.0,2.078,-0.7871787173153392,0.0,-0.012492516987007578,-0.012492516987007578,0.0
432,V1,d09172021,qkwlL,interference,3.0,17.0,18.0,48.0,Krab1n.jpg,Maca1n.jpg,57.0,60.0,0.0,,0.0,0.0,48.0,18.0,2.714,-0.3558768145764667,-3.0,0.2685891152206639,0.5496707474283354,-0.2810816322076715
433,V1,d09172021,ZpokS,interference,1.0,0.0,62.0,34.0,Mona1n.jpg,Lasb1n.jpg,75.0,40.0,0.0,,0.0,1.0,62.0,34.0,1.638,0.2751931399824527,35.0,0.6091403779103179,-0.9265076336282988,1.5356480115386169
434,V1,d09172021,ZpokS,interference,1.0,1.0,63.0,27.0,Lewia1.jpg,Gustc1.jpg,50.0,76.0,0.0,,1.0,0.0,27.0,63.0,1.433,0.03214319107502103,-26.0,-0.48775105890297976,0.6530160353828499,-1.1407670942858297
435,V1,d09172021,ZpokS,interference,1.0,2.0,50.0,39.0,Klic1n.jpg,Kupb1n.jpg,60.0,49.0,1.0,,1.0,0.0,39.0,50.0,1.786,0.45066334699855,11.0,-0.048994484177660655,-0.5316267163755116,0.48263223219785095
436,V1,d09172021,ZpokS,interference,1.0,3.0,40.0,66.0,Vinc1n.jpg,Vinca1.jpg,48.0,71.0,1.0,,1.0,0.0,66.0,40.0,4.497,3.664850720110978,-23.0,-0.5755023738480436,0.43363774802019034,-1.0091401218682339
437,V1,d09172021,ZpokS,interference,1.0,4.0,31.0,53.0,Picac1.jpg,Macc1n.jpg,70.0,40.0,0.0,,0.0,1.0,31.0,53.0,1.78,0.44354968995735683,30.0,0.3897620905476584,-0.9265076336282988,1.3162697241759571
438,V1,d09172021,ZpokS,interference,1.0,5.0,64.0,57.0,Vincb1.jpg,Lassa1.jpg,75.0,64.0,1.0,,0.0,1.0,64.0,57.0,1.31,-0.11368677826943807,11.0,0.6091403779103179,0.126508145712467,0.48263223219785095
439,V1,d09172021,ZpokS,interference,2.0,6.0,63.0,27.0,Lewia1.jpg,Gustc1.jpg,50.0,76.0,1.0,,1.0,0.0,27.0,63.0,1.273,-0.15755433002346253,-26.0,-0.48775105890297976,0.6530160353828499,-1.1407670942858297
440,V1,d09172021,ZpokS,interference,2.0,7.0,31.0,53.0,Picac1.jpg,Macc1n.jpg,70.0,40.0,1.0,,0.0,1.0,31.0,53.0,1.298,-0.12791409235182433,30.0,0.3897620905476584,-0.9265076336282988,1.3162697241759571
441,V1,d09172021,ZpokS,interference,2.0,8.0,64.0,57.0,Vincb1.jpg,Lassa1.jpg,75.0,64.0,0.0,,0.0,1.0,64.0,57.0,1.556,0.17797316041948014,11.0,0.6091403779103179,0.126508145712467,0.48263223219785095
442,V1,d09172021,ZpokS,interference,2.0,9.0,40.0,66.0,Vinc1n.jpg,Vinca1.jpg,48.0,71.0,0.0,,1.0,0.0,66.0,40.0,1.398,-0.00935314166527238,-23.0,-0.5755023738480436,0.43363774802019034,-1.0091401218682339
443,V1,d09172021,ZpokS,interference,2.0,10.0,50.0,39.0,Klic1n.jpg,Kupb1n.jpg,60.0,49.0,0.0,,1.0,0.0,39.0,50.0,1.149,-0.304569908874787,11.0,-0.048994484177660655,-0.5316267163755116,0.48263223219785095
444,V1,d09172021,ZpokS,interference,2.0,11.0,62.0,34.0,Mona1n.jpg,Lasb1n.jpg,75.0,40.0,1.0,,0.0,1.0,62.0,34.0,1.168,-0.28204332824434225,35.0,0.6091403779103179,-0.9265076336282988,1.5356480115386169
445,V1,d09172021,ZpokS,interference,3.0,12.0,50.0,39.0,Klic1n.jpg,Kupb1n.jpg,60.0,49.0,0.0,,1.0,0.0,39.0,50.0,0.945,-0.5464342482753535,11.0,-0.048994484177660655,-0.5316267163755116,0.48263223219785095
446,V1,d09172021,ZpokS,interference,3.0,13.0,31.0,53.0,Picac1.jpg,Macc1n.jpg,70.0,40.0,0.0,,0.0,1.0,31.0,53.0,0.732,-0.7989690732377094,30.0,0.3897620905476584,-0.9265076336282988,1.3162697241759571
447,V1,d09172021,ZpokS,interference,3.0,14.0,64.0,57.0,Vincb1.jpg,Lassa1.jpg,75.0,64.0,0.0,,0.0,1.0,64.0,57.0,0.744,-0.7847417591553232,11.0,0.6091403779103179,0.126508145712467,0.48263223219785095
448,V1,d09172021,ZpokS,interference,3.0,15.0,62.0,34.0,Mona1n.jpg,Lasb1n.jpg,75.0,40.0,0.0,,0.0,1.0,62.0,34.0,0.882,-0.6211276472078812,35.0,0.6091403779103179,-0.9265076336282988,1.5356480115386169
449,V1,d09172021,ZpokS,interference,3.0,16.0,63.0,27.0,Lewia1.jpg,Gustc1.jpg,50.0,76.0,0.0,,1.0,0.0,27.0,63.0,0.996,-0.4859681634252118,-26.0,-0.48775105890297976,0.6530160353828499,-1.1407670942858297
450,V1,d09172021,ZpokS,interference,3.0,17.0,40.0,66.0,Vinc1n.jpg,Vinca1.jpg,48.0,71.0,0.0,,1.0,0.0,66.0,40.0,0.721,-0.8120107778132302,-23.0,-0.5755023738480436,0.43363774802019034,-1.0091401218682339
451,V1,d09172021,sHdCP,interference,1.0,0.0,22.0,33.0,Klina1.jpg,Kline1.jpg,23.0,43.0,0.0,,1.0,0.0,33.0,22.0,1.344,0.15709138112263935,-20.0,-0.5792837693841225,0.5547138215799018,-1.1339975909640243
452,V1,d09172021,sHdCP,interference,1.0,1.0,34.0,24.0,Lasb1n.jpg,Lewa1n.jpg,44.0,32.0,0.0,,1.0,0.0,24.0,34.0,2.774,2.1728102994161307,12.0,0.611413701128103,-0.06898485345031158,0.6803985545784146
453,V1,d09172021,sHdCP,interference,1.0,2.0,11.0,52.0,Clifa1.jpg,Dekoa1.jpg,20.0,34.0,0.0,,0.0,1.0,11.0,52.0,1.352,0.16836813031588965,-14.0,-0.7493834080287262,0.04441490564609084,-0.793798313674817
454,V1,d09172021,sHdCP,interference,1.0,3.0,29.0,63.0,Klinb1.jpg,Lewia1.jpg,39.0,27.0,1.0,,1.0,0.0,63.0,29.0,1.768,0.7547590883649052,12.0,0.3279143033870969,-0.35248425119131765,0.6803985545784146
455,V1,d09172021,sHdCP,interference,1.0,4.0,58.0,40.0,Klinc1.jpg,Vinc1n.jpg,27.0,32.0,1.0,,0.0,1.0,58.0,40.0,1.401,0.23743821912454766,-5.0,-0.35248425119131765,-0.06898485345031158,-0.2834993977410061
456,V1,d09172021,sHdCP,interference,1.0,5.0,68.0,42.0,Mondb1.jpg,Mackc1.jpg,31.0,44.0,1.0,,0.0,1.0,68.0,42.0,2.903,2.354647880157292,-13.0,-0.1256847329985128,0.611413701128103,-0.7370984341266158
457,V1,d09172021,sHdCP,interference,2.0,6.0,34.0,24.0,Lasb1n.jpg,Lewa1n.jpg,44.0,32.0,1.0,,1.0,0.0,24.0,34.0,0.928,-0.42929957692637644,12.0,0.611413701128103,-0.06898485345031158,0.6803985545784146
458,V1,d09172021,sHdCP,interference,2.0,7.0,11.0,52.0,Clifa1.jpg,Dekoa1.jpg,20.0,34.0,1.0,,0.0,1.0,11.0,52.0,0.871,-0.5096464149282849,-14.0,-0.7493834080287262,0.04441490564609084,-0.793798313674817
459,V1,d09172021,sHdCP,interference,2.0,8.0,58.0,40.0,Klinc1.jpg,Vinc1n.jpg,27.0,32.0,0.0,,0.0,1.0,58.0,40.0,0.618,-0.8662736081648258,-5.0,-0.35248425119131765,-0.06898485345031158,-0.2834993977410061
460,V1,d09172021,sHdCP,interference,2.0,9.0,22.0,33.0,Klina1.jpg,Kline1.jpg,23.0,43.0,1.0,,1.0,0.0,33.0,22.0,2.024,1.115615062548915,-20.0,-0.5792837693841225,0.5547138215799018,-1.1339975909640243
461,V1,d09172021,sHdCP,interference,2.0,10.0,68.0,42.0,Mondb1.jpg,Mackc1.jpg,31.0,44.0,0.0,,0.0,1.0,68.0,42.0,0.974,-0.3644582690651873,-13.0,-0.1256847329985128,0.611413701128103,-0.7370984341266158
462,V1,d09172021,sHdCP,interference,2.0,11.0,29.0,63.0,Klinb1.jpg,Lewia1.jpg,39.0,27.0,0.0,,1.0,0.0,63.0,29.0,0.663,-0.8028418939527927,12.0,0.3279143033870969,-0.35248425119131765,0.6803985545784146
463,V1,d09172021,sHdCP,interference,3.0,12.0,68.0,42.0,Mondb1.jpg,Mackc1.jpg,31.0,44.0,0.0,,0.0,1.0,68.0,42.0,0.913,-0.4504434816637208,-13.0,-0.1256847329985128,0.611413701128103,-0.7370984341266158
464,V1,d09172021,sHdCP,interference,3.0,13.0,29.0,63.0,Klinb1.jpg,Lewia1.jpg,39.0,27.0,0.0,,1.0,0.0,63.0,29.0,0.902,-0.46594901180444,12.0,0.3279143033870969,-0.35248425119131765,0.6803985545784146
465,V1,d09172021,sHdCP,interference,3.0,14.0,34.0,24.0,Lasb1n.jpg,Lewa1n.jpg,44.0,32.0,0.0,,1.0,0.0,24.0,34.0,0.664,-0.8014323003036364,12.0,0.611413701128103,-0.06898485345031158,0.6803985545784146
466,V1,d09172021,sHdCP,interference,3.0,15.0,22.0,33.0,Klina1.jpg,Kline1.jpg,23.0,43.0,0.0,,1.0,0.0,33.0,22.0,0.808,-0.598450814825131,-20.0,-0.5792837693841225,0.5547138215799018,-1.1339975909640243
467,V1,d09172021,sHdCP,interference,3.0,16.0,58.0,40.0,Klinc1.jpg,Vinc1n.jpg,27.0,32.0,0.0,,0.0,1.0,58.0,40.0,0.567,-0.9381628842717965,-5.0,-0.35248425119131765,-0.06898485345031158,-0.2834993977410061
468,V1,d09172021,sHdCP,interference,3.0,17.0,11.0,52.0,Clifa1.jpg,Dekoa1.jpg,20.0,34.0,0.0,,0.0,1.0,11.0,52.0,0.712,-0.7337718051441348,-14.0,-0.7493834080287262,0.04441490564609084,-0.793798313674817
469,V1,d09172021,0Zwdb,interference,1.0,0.0,59.0,55.0,Macka1.jpg,Clia1n.jpg,23.0,33.0,1.0,,0.0,1.0,59.0,55.0,2.682,1.9137605118569796,-10.0,-0.6408620880677102,-0.159613961859167,-0.4812481262085432
470,V1,d09172021,0Zwdb,interference,1.0,1.0,53.0,62.0,Macc1n.jpg,Mona1n.jpg,29.0,51.0,0.0,,1.0,1.0,53.0,62.0,2.527,1.720772770935269,-22.0,-0.35211321234258425,0.7066326653162107,-1.058745877658795
471,V1,d09172021,0Zwdb,interference,1.0,2.0,43.0,28.0,Clifb1.jpg,Pice1n.jpg,31.0,43.0,1.0,,1.0,1.0,43.0,28.0,1.394,0.310094638907537,-12.0,-0.25586358710087564,0.3216341643493762,-0.5774977514502518
472,V1,d09172021,0Zwdb,interference,1.0,3.0,5.0,31.0,Pica1n.jpg,Picac1.jpg,32.0,31.0,1.0,,1.0,0.0,31.0,5.0,1.576,0.5366995992156106,1.0,-0.2077387744800213,-0.25586358710087564,0.04812481262085436
473,V1,d09172021,0Zwdb,interference,1.0,4.0,25.0,4.0,Dekob1.jpg,Krasb1.jpg,26.0,22.0,0.0,,0.0,1.0,25.0,4.0,1.161,0.019990486425223455,4.0,-0.49648765020514724,-0.6889869006885645,0.19249925048341726
474,V1,d09172021,0Zwdb,interference,1.0,5.0,46.0,0.0,Lewb1n.jpg,Monb1n.jpg,25.0,43.0,0.0,,0.0,1.0,46.0,0.0,0.809,-0.41827844779698437,-18.0,-0.5446124628260015,0.3216341643493762,-0.8662466271753777
475,V1,d09172021,0Zwdb,interference,2.0,6.0,25.0,4.0,Dekob1.jpg,Krasb1.jpg,26.0,22.0,1.0,,0.0,1.0,25.0,4.0,0.613,-0.6623145588979866,4.0,-0.49648765020514724,-0.6889869006885645,0.19249925048341726
476,V1,d09172021,0Zwdb,interference,2.0,7.0,43.0,28.0,Clifb1.jpg,Pice1n.jpg,31.0,43.0,0.0,,1.0,1.0,43.0,28.0,2.985,2.291020418303937,-12.0,-0.25586358710087564,0.3216341643493762,-0.5774977514502518
477,V1,d09172021,0Zwdb,interference,2.0,8.0,59.0,55.0,Macka1.jpg,Clia1n.jpg,23.0,33.0,0.0,,0.0,1.0,59.0,55.0,0.896,-0.30995629644092737,-10.0,-0.6408620880677102,-0.159613961859167,-0.4812481262085432
478,V1,d09172021,0Zwdb,interference,2.0,9.0,5.0,31.0,Pica1n.jpg,Picac1.jpg,32.0,31.0,0.0,,1.0,0.0,31.0,5.0,0.595,-0.6847260384888949,1.0,-0.2077387744800213,-0.25586358710087564,0.04812481262085436
479,V1,d09172021,0Zwdb,interference,2.0,10.0,53.0,62.0,Macc1n.jpg,Mona1n.jpg,29.0,51.0,1.0,,1.0,1.0,53.0,62.0,0.727,-0.520375188155567,-22.0,-0.35211321234258425,0.7066326653162107,-1.058745877658795
480,V1,d09172021,0Zwdb,interference,2.0,11.0,46.0,0.0,Lewb1n.jpg,Monb1n.jpg,25.0,43.0,1.0,,0.0,1.0,46.0,0.0,0.052,-1.3608056728146303,-18.0,-0.5446124628260015,0.3216341643493762,-0.8662466271753777
481,V1,d09172021,0Zwdb,interference,3.0,12.0,53.0,62.0,Macc1n.jpg,Mona1n.jpg,29.0,51.0,0.0,,1.0,1.0,53.0,62.0,0.757,-0.4830227221707197,-22.0,-0.35211321234258425,0.7066326653162107,-1.058745877658795
482,V1,d09172021,0Zwdb,interference,3.0,13.0,5.0,31.0,Pica1n.jpg,Picac1.jpg,32.0,31.0,0.0,,1.0,0.0,31.0,5.0,0.809,-0.41827844779698437,1.0,-0.2077387744800213,-0.25586358710087564,0.04812481262085436
483,V1,d09172021,0Zwdb,interference,3.0,14.0,46.0,0.0,Lewb1n.jpg,Monb1n.jpg,25.0,43.0,0.0,,0.0,1.0,46.0,0.0,0.643,-0.6249620929131393,-18.0,-0.5446124628260015,0.3216341643493762,-0.8662466271753777
484,V1,d09172021,0Zwdb,interference,3.0,15.0,59.0,55.0,Macka1.jpg,Clia1n.jpg,23.0,33.0,0.0,,0.0,0.0,55.0,59.0,0.931,-0.2663784194586055,-10.0,-0.6408620880677102,-0.159613961859167,-0.4812481262085432
485,V1,d09172021,0Zwdb,interference,3.0,16.0,43.0,28.0,Clifb1.jpg,Pice1n.jpg,31.0,43.0,0.0,,1.0,1.0,43.0,28.0,0.631,-0.6399030793070782,-12.0,-0.25586358710087564,0.3216341643493762,-0.5774977514502518
486,V1,d09172021,0Zwdb,interference,3.0,17.0,25.0,4.0,Dekob1.jpg,Krasb1.jpg,26.0,22.0,0.0,,0.0,1.0,25.0,4.0,0.821,-0.4033374614030456,4.0,-0.49648765020514724,-0.6889869006885645,0.19249925048341726
487,V1,d09142021,nD3lS,interference,1.0,0.0,55.0,47.0,Clia1n.jpg,Vina1n.jpg,36.0,58.0,1.0,,1.0,0.0,47.0,55.0,1.721,0.2071232197491898,-22.0,-0.6715447942422776,0.7490307320394637,-1.4205755262817412
488,V1,d09142021,nD3lS,interference,1.0,1.0,50.0,20.0,Klic1n.jpg,Picb1n.jpg,53.0,59.0,0.0,,0.0,0.0,20.0,50.0,4.679,2.872839611416065,-6.0,0.42617265788452247,0.8136023468704519,-0.3874296889859294
489,V1,d09142021,nD3lS,interference,1.0,2.0,34.0,38.0,Lasb1n.jpg,Krasa1.jpg,35.0,35.0,1.0,,1.0,0.0,38.0,34.0,2.848,1.2227629673518157,0.0,-0.7361164090732658,-0.7361164090732658,0.0
490,V1,d09142021,nD3lS,interference,1.0,3.0,51.0,33.0,Lewic1.jpg,Kline1.jpg,35.0,40.0,0.0,,1.0,1.0,51.0,33.0,1.603,0.10078294448999725,-5.0,-0.7361164090732658,-0.41325833491832464,-0.32285807415494117
491,V1,d09142021,nD3lS,interference,1.0,4.0,57.0,60.0,Lassa1.jpg,Kupc1n.jpg,45.0,38.0,0.0,,0.0,1.0,57.0,60.0,1.369,-0.11009522848162162,7.0,-0.09040026076338345,-0.5424015645803011,0.4520013038169176
492,V1,d09142021,nD3lS,interference,1.0,5.0,58.0,18.0,Klinc1.jpg,Krab1n.jpg,38.0,33.0,1.0,,0.0,1.0,58.0,18.0,1.819,0.29543971954072235,5.0,-0.5424015645803011,-0.8652596387352424,0.3228580741549413
493,V1,d09142021,nD3lS,interference,2.0,6.0,51.0,33.0,Lewic1.jpg,Kline1.jpg,35.0,40.0,1.0,,1.0,1.0,51.0,33.0,0.951,-0.4867921357557101,-5.0,-0.7361164090732658,-0.41325833491832464,-0.32285807415494117
494,V1,d09142021,nD3lS,interference,2.0,7.0,55.0,47.0,Clia1n.jpg,Vina1n.jpg,36.0,58.0,0.0,,1.0,0.0,47.0,55.0,3.385,1.7067013386584795,-22.0,-0.6715447942422776,0.7490307320394637,-1.4205755262817412
495,V1,d09142021,nD3lS,interference,2.0,8.0,58.0,18.0,Klinc1.jpg,Krab1n.jpg,38.0,33.0,0.0,,0.0,1.0,58.0,18.0,0.781,-0.6399942272308178,5.0,-0.5424015645803011,-0.8652596387352424,0.3228580741549413
496,V1,d09142021,nD3lS,interference,2.0,9.0,34.0,38.0,Lasb1n.jpg,Krasa1.jpg,35.0,35.0,0.0,,1.0,0.0,38.0,34.0,0.94,-0.49670521226292297,0.0,-0.7361164090732658,-0.7361164090732658,0.0
497,V1,d09142021,nD3lS,interference,2.0,10.0,50.0,20.0,Klic1n.jpg,Picb1n.jpg,53.0,59.0,1.0,,0.0,1.0,50.0,20.0,0.716,-0.698571497500712,-6.0,0.42617265788452247,0.8136023468704519,-0.3874296889859294
498,V1,d09142021,nD3lS,interference,2.0,11.0,57.0,60.0,Lassa1.jpg,Kupc1n.jpg,45.0,38.0,1.0,,0.0,1.0,57.0,60.0,1.086,-0.3651316513490068,7.0,-0.09040026076338345,-0.5424015645803011,0.4520013038169176
499,V1,d09142021,nD3lS,interference,3.0,12.0,51.0,33.0,Lewic1.jpg,Kline1.jpg,35.0,40.0,0.0,,1.0,1.0,51.0,33.0,1.514,0.020577143658911466,-5.0,-0.7361164090732658,-0.41325833491832464,-0.32285807415494117
500,V1,d09142021,nD3lS,interference,3.0,13.0,34.0,38.0,Lasb1n.jpg,Krasa1.jpg,35.0,35.0,0.0,,1.0,0.0,38.0,34.0,0.64,-0.767061844277819,0.0,-0.7361164090732658,-0.7361164090732658,0.0
501,V1,d09142021,nD3lS,interference,3.0,14.0,55.0,47.0,Clia1n.jpg,Vina1n.jpg,36.0,58.0,0.0,,1.0,0.0,47.0,55.0,0.642,-0.7652594667310529,-22.0,-0.6715447942422776,0.7490307320394637,-1.4205755262817412
502,V1,d09142021,nD3lS,interference,3.0,15.0,58.0,18.0,Klinc1.jpg,Krab1n.jpg,38.0,33.0,0.0,,0.0,1.0,58.0,18.0,0.6,-0.8031093952131384,5.0,-0.5424015645803011,-0.8652596387352424,0.3228580741549413
503,V1,d09142021,nD3lS,interference,3.0,16.0,57.0,60.0,Lassa1.jpg,Kupc1n.jpg,45.0,38.0,0.0,,0.0,1.0,57.0,60.0,0.872,-0.557986048852966,7.0,-0.09040026076338345,-0.5424015645803011,0.4520013038169176
504,V1,d09142021,nD3lS,interference,3.0,17.0,50.0,20.0,Klic1n.jpg,Picb1n.jpg,53.0,59.0,0.0,,0.0,1.0,50.0,20.0,0.675,-0.7355202372094144,-6.0,0.42617265788452247,0.8136023468704519,-0.3874296889859294
