,version,group,PID,phase,block,trial,stimulus_id,reward_type,reward_amount,see_reward_rt,zscored_see_reward_rt,register_reward_response,register_reward_rt,zscored_register_reward_rt,register_reward_acc
0,V1,d09142021,fX2Ey,reward_learning,1.0,0.0,7.0,1.0,151.0,374.0,0.05831880439759805,1.0,768.0,1.650816654684558,1
1,V1,d09142021,fX2Ey,reward_learning,1.0,1.0,7.0,1.0,151.0,856.0,3.44842900174138,1.0,1385.0,5.852723436768256,1
2,V1,d09142021,fX2Ey,reward_learning,1.0,2.0,34.0,-1.0,0.0,484.0,0.8319954054511582,-1.0,856.0,2.250116163312379,1
3,V1,d09142021,fX2Ey,reward_learning,1.0,3.0,62.0,1.0,150.0,664.0,2.0980116617206206,1.0,820.0,2.0049481825100886,1
4,V1,d09142021,fX2Ey,reward_learning,1.0,4.0,50.0,-1.0,0.0,727.0,2.541117351414932,-1.0,726.0,1.3647873437485525,1
5,V1,d09142021,fX2Ey,reward_learning,1.0,5.0,50.0,-1.0,0.0,429.0,0.44515710492437816,-1.0,590.0,0.4385971940510113,1
6,V1,d09142021,fX2Ey,reward_learning,1.0,6.0,53.0,-1.0,0.0,774.0,2.871688262774181,-1.0,824.0,2.0321890692658986,1
7,V1,d09142021,fX2Ey,reward_learning,1.0,7.0,66.0,1.0,147.0,571.0,1.443903262648065,1.0,542.0,0.11170655298129081,1
8,V1,d09142021,fX2Ey,reward_learning,1.0,8.0,47.0,-1.0,0.0,404.0,0.26932151377584174,-1.0,670.0,0.9834149291672121,1
9,V1,d09142021,fX2Ey,reward_learning,1.0,9.0,30.0,1.0,156.0,464.0,0.6913269325323291,1.0,556.0,0.20704965662662594,1
10,V1,d09142021,fX2Ey,reward_learning,1.0,10.0,29.0,1.0,157.0,407.0,0.2904217847136661,1.0,510.0,-0.1062205410651895,1
11,V1,d09142021,fX2Ey,reward_learning,1.0,11.0,25.0,-1.0,0.0,434.0,0.48032422315408546,-1.0,549.0,0.15937810480395836,1
12,V1,d09142021,fX2Ey,reward_learning,1.0,12.0,54.0,1.0,153.0,407.0,0.2904217847136661,1.0,451.0,-0.5080236207133876,1
13,V1,d09142021,fX2Ey,reward_learning,1.0,13.0,47.0,-1.0,0.0,350.0,-0.11048336310499692,-1.0,586.0,0.41135630729520123,1
14,V1,d09142021,fX2Ey,reward_learning,1.0,14.0,66.0,1.0,147.0,347.0,-0.13158363404282128,1.0,456.0,-0.473972512268625,1
15,V1,d09142021,fX2Ey,reward_learning,1.0,15.0,53.0,-1.0,0.0,383.0,0.12161961721107116,-1.0,594.0,0.4658380808068213,1
16,V1,d09142021,fX2Ey,reward_learning,1.0,16.0,54.0,1.0,153.0,347.0,-0.13158363404282128,1.0,718.0,1.3103055702369324,1
17,V1,d09142021,fX2Ey,reward_learning,1.0,17.0,62.0,1.0,150.0,266.0,-0.7012909493640793,1.0,525.0,-0.004067215730901849,1
18,V1,d09142021,fX2Ey,reward_learning,1.0,18.0,29.0,1.0,157.0,426.0,0.4240568339865538,1.0,510.0,-0.1062205410651895,1
19,V1,d09142021,fX2Ey,reward_learning,1.0,19.0,30.0,1.0,156.0,354.0,-0.08234966852123109,1.0,511.0,-0.09941031937623698,1
20,V1,d09142021,fX2Ey,reward_learning,1.0,20.0,34.0,-1.0,0.0,360.0,-0.040149126645582345,-1.0,582.0,0.3841154205393912,1
21,V1,d09142021,fX2Ey,reward_learning,1.0,21.0,60.0,-1.0,0.0,313.0,-0.37072003800483083,-1.0,610.0,0.5748016278300615,1
22,V1,d09142021,fX2Ey,reward_learning,1.0,22.0,25.0,-1.0,0.0,352.0,-0.096416515813114,-1.0,538.0,0.08446566622548077,1
23,V1,d09142021,fX2Ey,reward_learning,1.0,23.0,60.0,-1.0,0.0,269.0,-0.6801906784262549,-1.0,530.0,0.029983892713860698,1
24,V1,d09142021,fX2Ey,reward_learning,2.0,24.0,29.0,1.0,157.0,962.0,4.193971908211175,1.0,498.0,-0.1879432013326196,1
25,V1,d09142021,fX2Ey,reward_learning,2.0,25.0,7.0,1.0,151.0,295.0,-0.49732166363177704,1.0,498.0,-0.1879432013326196,1
26,V1,d09142021,fX2Ey,reward_learning,2.0,26.0,50.0,-1.0,0.0,282.0,-0.588756171029016,-1.0,546.0,0.13894743973710086,1
27,V1,d09142021,fX2Ey,reward_learning,2.0,27.0,47.0,-1.0,0.0,289.0,-0.5395222055074258,-1.0,474.0,-0.3513885218674798,1
28,V1,d09142021,fX2Ey,reward_learning,2.0,28.0,60.0,-1.0,0.0,435.0,0.4873576468000269,-1.0,490.0,-0.24242497484423967,1
29,V1,d09142021,fX2Ey,reward_learning,2.0,29.0,66.0,1.0,147.0,228.0,-0.9685610479098546,1.0,430.0,-0.6510382761813902,1
30,V1,d09142021,fX2Ey,reward_learning,2.0,30.0,29.0,1.0,157.0,237.0,-0.9052602350963815,1.0,425.0,-0.6850893846261528,1
31,V1,d09142021,fX2Ey,reward_learning,2.0,31.0,62.0,1.0,150.0,318.0,-0.3355529197751235,1.0,498.0,-0.1879432013326196,1
32,V1,d09142021,fX2Ey,reward_learning,2.0,32.0,50.0,-1.0,0.0,409.0,0.30448863200554904,-1.0,396.0,-0.8825858136057756,1
33,V1,d09142021,fX2Ey,reward_learning,2.0,33.0,25.0,-1.0,0.0,243.0,-0.8630596932207327,-1.0,415.0,-0.7531916015156779,1
34,V1,d09142021,fX2Ey,reward_learning,2.0,34.0,30.0,1.0,156.0,246.0,-0.8419594222829084,1.0,466.0,-0.4058702953790999,1
35,V1,d09142021,fX2Ey,reward_learning,2.0,35.0,34.0,-1.0,0.0,317.0,-0.342586343421065,-1.0,419.0,-0.7259507147598678,1
36,V1,d09142021,fX2Ey,reward_learning,2.0,36.0,60.0,-1.0,0.0,349.0,-0.11751678675093837,-1.0,454.0,-0.48759295564653005,1
37,V1,d09142021,fX2Ey,reward_learning,2.0,37.0,7.0,1.0,151.0,280.0,-0.6028230183208989,1.0,459.0,-0.4535418472017675,1
38,V1,d09142021,fX2Ey,reward_learning,2.0,38.0,47.0,-1.0,0.0,458.0,0.6491263906566804,-1.0,397.0,-0.8757755919168231,1
39,V1,d09142021,fX2Ey,reward_learning,2.0,39.0,53.0,-1.0,0.0,345.0,-0.1456504813347042,-1.0,516.0,-0.06535921093147444,1
40,V1,d09142021,fX2Ey,reward_learning,2.0,40.0,66.0,1.0,147.0,324.0,-0.29335237789947477,1.0,458.0,-0.46035206889072,1
41,V1,d09142021,fX2Ey,reward_learning,2.0,41.0,53.0,-1.0,0.0,367.0,0.009084838876007847,-1.0,465.0,-0.4126805170680524,1
42,V1,d09142021,fX2Ey,reward_learning,2.0,42.0,34.0,-1.0,0.0,276.0,-0.6309567129046647,-1.0,458.0,-0.46035206889072,1
43,V1,d09142021,fX2Ey,reward_learning,2.0,43.0,30.0,1.0,156.0,261.0,-0.7364580675937865,1.0,488.0,-0.2560454182221447,1
44,V1,d09142021,fX2Ey,reward_learning,2.0,44.0,54.0,1.0,153.0,299.0,-0.4691879690480112,1.0,556.0,0.20704965662662594,1
45,V1,d09142021,fX2Ey,reward_learning,2.0,45.0,62.0,1.0,150.0,290.0,-0.5324887818614843,1.0,418.0,-0.7327609364488203,1
46,V1,d09142021,fX2Ey,reward_learning,2.0,46.0,25.0,-1.0,0.0,330.0,-0.25115183602382607,-1.0,461.0,-0.43992140382386247,1
47,V1,d09142021,fX2Ey,reward_learning,2.0,47.0,54.0,1.0,153.0,274.0,-0.6450235601965476,1.0,478.0,-0.3241476351116698,1
48,V1,d09142021,fX2Ey,reward_learning,3.0,48.0,29.0,1.0,157.0,331.0,-0.2441184123778846,1.0,518.0,-0.05173876755356942,1
49,V1,d09142021,fX2Ey,reward_learning,3.0,49.0,54.0,1.0,153.0,297.0,-0.4832548163398941,1.0,437.0,-0.6033667243587226,1
50,V1,d09142021,fX2Ey,reward_learning,3.0,50.0,62.0,1.0,150.0,348.0,-0.12455021039687983,1.0,575.0,0.3364438687167236,1
51,V1,d09142021,fX2Ey,reward_learning,3.0,51.0,53.0,-1.0,0.0,492.0,0.88826279461869,-1.0,450.0,-0.5148338424023401,1
52,V1,d09142021,fX2Ey,reward_learning,3.0,52.0,25.0,-1.0,0.0,294.0,-0.5043550872777185,-1.0,528.0,0.01636344933595568,1
53,V1,d09142021,fX2Ey,reward_learning,3.0,53.0,47.0,-1.0,0.0,237.0,-0.9052602350963815,-1.0,546.0,0.13894743973710086,1
54,V1,d09142021,fX2Ey,reward_learning,3.0,54.0,7.0,1.0,151.0,261.0,-0.7364580675937865,1.0,420.0,-0.7191404930709153,1
55,V1,d09142021,fX2Ey,reward_learning,3.0,55.0,50.0,-1.0,0.0,225.0,-0.9896613188476789,-1.0,428.0,-0.6646587195592952,1
56,V1,d09142021,fX2Ey,reward_learning,3.0,56.0,53.0,-1.0,0.0,261.0,-0.7364580675937865,-1.0,418.0,-0.7327609364488203,1
57,V1,d09142021,fX2Ey,reward_learning,3.0,57.0,34.0,-1.0,0.0,253.0,-0.7927254567613182,-1.0,434.0,-0.6237973894255802,1
58,V1,d09142021,fX2Ey,reward_learning,3.0,58.0,60.0,-1.0,0.0,259.0,-0.7505249148856694,-1.0,414.0,-0.7600018232046304,1
59,V1,d09142021,fX2Ey,reward_learning,3.0,59.0,60.0,-1.0,0.0,291.0,-0.5254553582155429,-1.0,582.0,0.3841154205393912,1
60,V1,d09142021,fX2Ey,reward_learning,3.0,60.0,29.0,1.0,157.0,250.0,-0.8138257276991425,1.0,616.0,0.6156629579637765,1
61,V1,d09142021,fX2Ey,reward_learning,3.0,61.0,25.0,-1.0,0.0,416.0,0.3537225975271392,-1.0,458.0,-0.46035206889072,1
62,V1,d09142021,fX2Ey,reward_learning,3.0,62.0,62.0,1.0,150.0,247.0,-0.8349259986369669,1.0,467.0,-0.3990600736901474,1
63,V1,d09142021,fX2Ey,reward_learning,3.0,63.0,66.0,1.0,147.0,256.0,-0.7716251858234938,1.0,393.0,-0.9030164786726331,1
64,V1,d09142021,fX2Ey,reward_learning,3.0,64.0,30.0,1.0,156.0,270.0,-0.6731572547803134,1.0,469.0,-0.3854396303122424,1
65,V1,d09142021,fX2Ey,reward_learning,3.0,65.0,34.0,-1.0,0.0,466.0,0.705393779824212,-1.0,359.0,-1.1345640160970185,1
66,V1,d09142021,fX2Ey,reward_learning,3.0,66.0,7.0,1.0,151.0,390.0,0.17085358273266135,1.0,471.0,-0.37181918693433735,1
67,V1,d09142021,fX2Ey,reward_learning,3.0,67.0,66.0,1.0,147.0,336.0,-0.2089512941481773,1.0,483.0,-0.2900965266669073,1
68,V1,d09142021,fX2Ey,reward_learning,3.0,68.0,54.0,1.0,153.0,291.0,-0.5254553582155429,1.0,458.0,-0.46035206889072,1
69,V1,d09142021,fX2Ey,reward_learning,3.0,69.0,50.0,-1.0,0.0,384.0,0.1286530408570126,-1.0,463.0,-0.42630096044595744,1
70,V1,d09142021,fX2Ey,reward_learning,3.0,70.0,47.0,-1.0,0.0,335.0,-0.21598471779411876,-1.0,546.0,0.13894743973710086,1
71,V1,d09142021,fX2Ey,reward_learning,3.0,71.0,30.0,1.0,156.0,265.0,-0.7083243730100207,1.0,340.0,-1.263958228187116,1
72,V1,d09142021,CDRCj,reward_learning,1.0,0.0,5.0,1.0,144.0,602.0,0.39080518275975895,1.0,894.0,1.6154404810173992,1
73,V1,d09142021,CDRCj,reward_learning,1.0,1.0,8.0,-1.0,0.0,717.0,1.085197224229889,-1.0,908.0,1.6864736342570406,1
74,V1,d09142021,CDRCj,reward_learning,1.0,2.0,44.0,1.0,150.0,1092.0,3.3495190985890093,1.0,892.0,1.6052928876974506,1
75,V1,d09142021,CDRCj,reward_learning,1.0,3.0,44.0,1.0,150.0,802.0,1.5984435157512897,1.0,894.0,1.6154404810173992,1
76,V1,d09142021,CDRCj,reward_learning,1.0,4.0,68.0,1.0,146.0,760.0,1.3448394658230682,1.0,686.0,0.5600907757427278,1
77,V1,d09142021,CDRCj,reward_learning,1.0,5.0,63.0,1.0,157.0,1000.0,2.7940054654129054,1.0,653.0,0.39265548596357314,1
78,V1,d09142021,CDRCj,reward_learning,1.0,6.0,42.0,1.0,154.0,829.0,1.7614746907051464,1.0,526.0,-0.2517166898531734,1
79,V1,d09142021,CDRCj,reward_learning,1.0,7.0,55.0,-1.0,0.0,599.0,0.372690607764886,-1.0,875.0,1.519038344477886,1
80,V1,d09142021,CDRCj,reward_learning,1.0,8.0,12.0,1.0,159.0,556.0,0.11304836617170688,1.0,571.0,-0.02339584015432619,1
81,V1,d09142021,CDRCj,reward_learning,1.0,9.0,12.0,1.0,159.0,802.0,1.5984435157512897,1.0,813.0,1.2044629515594742,1
82,V1,d09142021,CDRCj,reward_learning,1.0,10.0,63.0,1.0,157.0,654.0,0.7047911493375569,1.0,700.0,0.6311239289823691,1
83,V1,d09142021,CDRCj,reward_learning,1.0,11.0,31.0,-1.0,0.0,566.0,0.17343028282128342,-1.0,939.0,1.8437613307162464,1
84,V1,d09142021,CDRCj,reward_learning,1.0,12.0,53.0,-1.0,0.0,559.0,0.13116294116657984,-1.0,621.0,0.23029399284439292,1
85,V1,d09142021,CDRCj,reward_learning,1.0,13.0,31.0,-1.0,0.0,789.0,1.5199470241068402,-1.0,547.0,-0.14516695999371138,1
86,V1,d09142021,CDRCj,reward_learning,1.0,14.0,21.0,-1.0,0.0,637.0,0.6021418910332769,-1.0,500.0,-0.3836354030125073,1
87,V1,d09142021,CDRCj,reward_learning,1.0,15.0,39.0,-1.0,0.0,690.0,0.9221660492760325,-1.0,590.0,0.07300629638518707,1
88,V1,d09142021,CDRCj,reward_learning,1.0,16.0,8.0,-1.0,0.0,680.0,0.8617841326264559,-1.0,540.0,-0.18068353661353204,1
89,V1,d09142021,CDRCj,reward_learning,1.0,17.0,68.0,1.0,146.0,876.0,2.045269698958156,1.0,595.0,0.09837527968505898,1
90,V1,d09142021,CDRCj,reward_learning,1.0,18.0,53.0,-1.0,0.0,490.0,-0.28547228371549827,-1.0,639.0,0.3216223327239318,1
91,V1,d09142021,CDRCj,reward_learning,1.0,19.0,5.0,1.0,144.0,717.0,1.085197224229889,1.0,622.0,0.2353677895043673,1
92,V1,d09142021,CDRCj,reward_learning,1.0,20.0,21.0,-1.0,0.0,678.0,0.8497077492965407,-1.0,732.0,0.7934854221015494,1
93,V1,d09142021,CDRCj,reward_learning,1.0,21.0,55.0,-1.0,0.0,702.0,0.9946243492555243,-1.0,859.0,1.437857597918296,1
94,V1,d09142021,CDRCj,reward_learning,1.0,22.0,39.0,-1.0,0.0,646.0,0.6564856160178958,-1.0,844.0,1.36175064801868,1
95,V1,d09142021,CDRCj,reward_learning,1.0,23.0,42.0,1.0,154.0,629.0,0.5538363577136156,1.0,659.0,0.4230982659234194,1
96,V1,d09142021,CDRCj,reward_learning,2.0,24.0,53.0,-1.0,0.0,725.0,1.1335027575495504,-1.0,668.0,0.4687624358631889,1
97,V1,d09142021,CDRCj,reward_learning,2.0,25.0,42.0,1.0,154.0,406.0,-0.7926803835719413,1.0,532.0,-0.2212739098933271,1
98,V1,d09142021,CDRCj,reward_learning,2.0,26.0,21.0,-1.0,0.0,324.0,-1.2878121000984688,-1.0,379.0,-0.9975647988694076,1
99,V1,d09142021,CDRCj,reward_learning,2.0,27.0,63.0,1.0,157.0,316.0,-1.3361176334181302,1.0,327.0,-1.2614022251880754,1
100,V1,d09142021,CDRCj,reward_learning,2.0,28.0,21.0,-1.0,0.0,329.0,-1.2576211417736807,-1.0,241.0,-1.6977487379458722,1
101,V1,d09142021,CDRCj,reward_learning,2.0,29.0,31.0,-1.0,0.0,434.0,-0.6236110169531269,-1.0,557.0,-0.09442899339396754,1
102,V1,d09142021,CDRCj,reward_learning,2.0,30.0,12.0,1.0,159.0,452.0,-0.5149235669838891,1.0,551.0,-0.12487177335381383,1
103,V1,d09142021,CDRCj,reward_learning,2.0,31.0,39.0,-1.0,0.0,400.0,-0.8289095335616872,-1.0,356.0,-1.1142621220488185,1
104,V1,d09142021,CDRCj,reward_learning,2.0,32.0,68.0,1.0,146.0,264.0,-1.6501035999959281,1.0,430.0,-0.738801169210714,1
105,V1,d09142021,CDRCj,reward_learning,2.0,33.0,5.0,1.0,144.0,264.0,-1.6501035999959281,1.0,560.0,-0.0792076034140444,1
106,V1,d09142021,CDRCj,reward_learning,2.0,34.0,5.0,1.0,144.0,486.0,-0.3096250503753289,1.0,365.0,-1.068597952109049,1
107,V1,d09142021,CDRCj,reward_learning,2.0,35.0,12.0,1.0,159.0,312.0,-1.3602704000779606,1.0,343.0,-1.1802214786284853,1
108,V1,d09142021,CDRCj,reward_learning,2.0,36.0,55.0,-1.0,0.0,377.0,-0.9677879418557132,-1.0,497.0,-0.3988567929924305,1
109,V1,d09142021,CDRCj,reward_learning,2.0,37.0,31.0,-1.0,0.0,422.0,-0.6960693169326188,-1.0,285.0,-1.4745016849069994,1
110,V1,d09142021,CDRCj,reward_learning,2.0,38.0,42.0,1.0,154.0,454.0,-0.5028471836539739,1.0,261.0,-1.5962728047463848,1
111,V1,d09142021,CDRCj,reward_learning,2.0,39.0,8.0,-1.0,0.0,438.0,-0.5994582502932962,-1.0,329.0,-1.2512546318681268,1
112,V1,d09142021,CDRCj,reward_learning,2.0,40.0,53.0,-1.0,0.0,397.0,-0.8470241085565601,-1.0,373.0,-1.028007578829254,1
113,V1,d09142021,CDRCj,reward_learning,2.0,41.0,55.0,-1.0,0.0,478.0,-0.35793058369499015,-1.0,302.0,-1.388247141687435,1
114,V1,d09142021,CDRCj,reward_learning,2.0,42.0,68.0,1.0,146.0,485.0,-0.31566324204028656,1.0,639.0,0.3216223327239318,1
115,V1,d09142021,CDRCj,reward_learning,2.0,43.0,44.0,1.0,150.0,408.0,-0.7806040002420259,1.0,540.0,-0.18068353661353204,1
116,V1,d09142021,CDRCj,reward_learning,2.0,44.0,8.0,-1.0,0.0,513.0,-0.14659387542147223,-1.0,543.0,-0.1654621466336089,1
117,V1,d09142021,CDRCj,reward_learning,2.0,45.0,44.0,1.0,150.0,423.0,-0.6900311252676611,1.0,622.0,0.2353677895043673,1
118,V1,d09142021,CDRCj,reward_learning,2.0,46.0,39.0,-1.0,0.0,488.0,-0.2975486670454136,-1.0,463.0,-0.5713658794315595,1
119,V1,d09142021,CDRCj,reward_learning,2.0,47.0,63.0,1.0,157.0,505.0,-0.19489940874113346,1.0,348.0,-1.1548524953286134,1
120,V1,d09142021,CDRCj,reward_learning,3.0,48.0,39.0,-1.0,0.0,439.0,-0.5934200586283387,-1.0,1252.0,3.431859685288228,1
121,V1,d09142021,CDRCj,reward_learning,3.0,49.0,55.0,-1.0,0.0,437.0,-0.6054964419582539,-1.0,494.0,-0.4140781829723536,1
122,V1,d09142021,CDRCj,reward_learning,3.0,50.0,21.0,-1.0,0.0,424.0,-0.6839929336027034,-1.0,484.0,-0.46481614957209744,1
123,V1,d09142021,CDRCj,reward_learning,3.0,51.0,42.0,1.0,154.0,515.0,-0.13451749209155692,1.0,807.0,1.174020171599628,1
124,V1,d09142021,CDRCj,reward_learning,3.0,52.0,53.0,-1.0,0.0,464.0,-0.44246526700439726,-1.0,500.0,-0.3836354030125073,1
125,V1,d09142021,CDRCj,reward_learning,3.0,53.0,55.0,-1.0,0.0,717.0,1.085197224229889,-1.0,860.0,1.4429313945782702,1
126,V1,d09142021,CDRCj,reward_learning,3.0,54.0,8.0,-1.0,0.0,579.0,0.2519267744657329,-1.0,784.0,1.0573228484202173,1
127,V1,d09142021,CDRCj,reward_learning,3.0,55.0,12.0,1.0,159.0,546.0,0.05266644952213034,1.0,662.0,0.4383196559033426,1
128,V1,d09142021,CDRCj,reward_learning,3.0,56.0,42.0,1.0,154.0,489.0,-0.29151047538045594,1.0,597.0,0.10852287300500775,1
129,V1,d09142021,CDRCj,reward_learning,3.0,57.0,39.0,-1.0,0.0,475.0,-0.3760451586898631,-1.0,591.0,0.07808009304516146,1
130,V1,d09142021,CDRCj,reward_learning,3.0,58.0,21.0,-1.0,0.0,471.0,-0.40019792534969373,-1.0,726.0,0.763042642141703,1
131,V1,d09142021,CDRCj,reward_learning,3.0,59.0,63.0,1.0,157.0,425.0,-0.6779547419377457,1.0,691.0,0.5854597590425997,1
132,V1,d09142021,CDRCj,reward_learning,3.0,60.0,68.0,1.0,146.0,637.0,0.6021418910332769,1.0,571.0,-0.02339584015432619,1
133,V1,d09142021,CDRCj,reward_learning,3.0,61.0,8.0,-1.0,0.0,476.0,-0.37000696702490543,-1.0,524.0,-0.26186428317312216,1
134,V1,d09142021,CDRCj,reward_learning,3.0,62.0,44.0,1.0,150.0,437.0,-0.6054964419582539,1.0,452.0,-0.6271776426912776,1
135,V1,d09142021,CDRCj,reward_learning,3.0,63.0,68.0,1.0,146.0,439.0,-0.5934200586283387,1.0,382.0,-0.9823434088894845,1
136,V1,d09142021,CDRCj,reward_learning,3.0,64.0,12.0,1.0,159.0,472.0,-0.39415973368473606,1.0,363.0,-1.0787455454289976,1
137,V1,d09142021,CDRCj,reward_learning,3.0,65.0,31.0,-1.0,0.0,450.0,-0.5269999503138044,-1.0,638.0,0.31654853606395744,1
138,V1,d09142021,CDRCj,reward_learning,3.0,66.0,63.0,1.0,157.0,422.0,-0.6960693169326188,1.0,351.0,-1.1396311053486903,1
139,V1,d09142021,CDRCj,reward_learning,3.0,67.0,5.0,1.0,144.0,462.0,-0.4545416503343126,1.0,375.0,-1.0178599855093051,1
140,V1,d09142021,CDRCj,reward_learning,3.0,68.0,31.0,-1.0,0.0,449.0,-0.5330381419787621,-1.0,332.0,-1.2360332418882036,1
141,V1,d09142021,CDRCj,reward_learning,3.0,69.0,53.0,-1.0,0.0,362.0,-1.058360816830078,-1.0,406.0,-0.8605722890500993,1
142,V1,d09142021,CDRCj,reward_learning,3.0,70.0,44.0,1.0,150.0,520.0,-0.10432653376676866,1.0,460.0,-0.5865872694114826,1
143,V1,d09142021,CDRCj,reward_learning,3.0,71.0,5.0,1.0,144.0,405.0,-0.7987185752368988,1.0,532.0,-0.2212739098933271,1
144,V1,d09172021,S5lJ6,reward_learning,1.0,0.0,43.0,-1.0,0.0,385.0,-0.38814505214554956,-1.0,842.0,2.2420046326770007,1
145,V1,d09172021,S5lJ6,reward_learning,1.0,1.0,6.0,1.0,159.0,816.0,0.834689187263658,1.0,706.0,1.3994459374370103,1
146,V1,d09172021,S5lJ6,reward_learning,1.0,2.0,6.0,1.0,159.0,1048.0,1.4929201467600297,1.0,868.0,2.40308203029641,1
147,V1,d09172021,S5lJ6,reward_learning,1.0,3.0,43.0,-1.0,0.0,548.0,0.07431894094888394,-1.0,654.0,1.0772911421981903,1
148,V1,d09172021,S5lJ6,reward_learning,1.0,4.0,53.0,1.0,150.0,2334.0,5.141562448106296,1.0,625.0,0.8976278910073101,1
149,V1,d09172021,S5lJ6,reward_learning,1.0,5.0,64.0,-1.0,0.0,766.0,0.6928290666825434,-1.0,666.0,1.151634556484072,1
150,V1,d09172021,S5lJ6,reward_learning,1.0,6.0,23.0,-1.0,0.0,564.0,0.1197141795348406,-1.0,679.0,1.2321732552937767,1
151,V1,d09172021,S5lJ6,reward_learning,1.0,7.0,30.0,1.0,143.0,816.0,0.834689187263658,1.0,711.0,1.4304223600561274,1
152,V1,d09172021,S5lJ6,reward_learning,1.0,8.0,30.0,1.0,143.0,465.0,-0.16116885921576624,1.0,431.0,-0.3042573066144408,1
153,V1,d09172021,S5lJ6,reward_learning,1.0,9.0,57.0,1.0,159.0,488.0,-0.09591320374845354,1.0,570.0,0.5568872421970199,1
154,V1,d09172021,S5lJ6,reward_learning,1.0,10.0,63.0,-1.0,0.0,439.0,-0.2349361219179458,-1.0,571.0,0.5630825267208434,1
155,V1,d09172021,S5lJ6,reward_learning,1.0,11.0,38.0,1.0,151.0,324.0,-0.5612143992545093,1.0,703.0,1.3808600838655398,1
156,V1,d09172021,S5lJ6,reward_learning,1.0,12.0,38.0,1.0,151.0,641.0,0.33817876522975704,1.0,395.0,-0.5272875494720852,1
157,V1,d09172021,S5lJ6,reward_learning,1.0,13.0,66.0,-1.0,0.0,672.0,0.42613203999004806,-1.0,538.0,0.3586381374346692,1
158,V1,d09172021,S5lJ6,reward_learning,1.0,14.0,64.0,-1.0,0.0,387.0,-0.38247064732230496,-1.0,516.0,0.22234187791055315,1
159,V1,d09172021,S5lJ6,reward_learning,1.0,15.0,12.0,1.0,159.0,422.0,-0.2831685629155248,1.0,491.0,0.0674597648149667,1
160,V1,d09172021,S5lJ6,reward_learning,1.0,16.0,57.0,1.0,159.0,430.0,-0.2604709436225464,1.0,468.0,-0.07503177923297284,1
161,V1,d09172021,S5lJ6,reward_learning,1.0,17.0,66.0,-1.0,0.0,381.0,-0.3994938617920387,-1.0,507.0,0.16658431719614203,1
162,V1,d09172021,S5lJ6,reward_learning,1.0,18.0,50.0,-1.0,0.0,605.0,0.23603947841135456,-1.0,578.0,0.6064495183876075,1
163,V1,d09172021,S5lJ6,reward_learning,1.0,19.0,63.0,-1.0,0.0,233.0,-0.8193998187121379,-1.0,519.0,0.24092773148202354,1
164,V1,d09172021,S5lJ6,reward_learning,1.0,20.0,50.0,-1.0,0.0,184.0,-0.95842273688163,-1.0,551.0,0.4391768362443742,1
165,V1,d09172021,S5lJ6,reward_learning,1.0,21.0,23.0,-1.0,0.0,262.0,-0.7371209487750914,-1.0,611.0,0.8108939076737817,1
166,V1,d09172021,S5lJ6,reward_learning,1.0,22.0,12.0,1.0,159.0,378.0,-0.4080054690269056,1.0,546.0,0.4082004136252569,1
167,V1,d09172021,S5lJ6,reward_learning,1.0,23.0,53.0,1.0,150.0,453.0,-0.19521528815523373,1.0,331.0,-0.9237857589967866,1
168,V1,d09172021,S5lJ6,reward_learning,2.0,24.0,43.0,-1.0,0.0,1067.0,1.546826992580853,-1.0,439.0,-0.2546950304238531,1
169,V1,d09172021,S5lJ6,reward_learning,2.0,25.0,63.0,-1.0,0.0,1102.0,1.6461290769876333,-1.0,508.0,0.17277960171996548,1
170,V1,d09172021,S5lJ6,reward_learning,2.0,26.0,66.0,-1.0,0.0,1051.0,1.5014317539948965,-1.0,911.0,2.669479264820819,1
171,V1,d09172021,S5lJ6,reward_learning,2.0,27.0,50.0,-1.0,0.0,369.0,-0.4335402907315062,-1.0,520.0,0.247123016005847,1
172,V1,d09172021,S5lJ6,reward_learning,2.0,28.0,53.0,1.0,150.0,371.0,-0.42786588590826163,1.0,927.0,2.768603817201994,1
173,V1,d09172021,S5lJ6,reward_learning,2.0,29.0,66.0,-1.0,0.0,375.0,-0.4165170762617725,-1.0,550.0,0.43298155172055075,1
174,V1,d09172021,S5lJ6,reward_learning,2.0,30.0,63.0,-1.0,0.0,303.0,-0.6207956498985774,-1.0,458.0,-0.1369846244712074,1
175,V1,d09172021,S5lJ6,reward_learning,2.0,31.0,64.0,-1.0,0.0,251.0,-0.7683301753029366,-1.0,457.0,-0.14317990899503089,1
176,V1,d09172021,S5lJ6,reward_learning,2.0,32.0,57.0,1.0,159.0,245.0,-0.7853533897726703,1.0,613.0,0.8232844767214286,1
177,V1,d09172021,S5lJ6,reward_learning,2.0,33.0,30.0,1.0,143.0,341.0,-0.5129819582569304,1.0,758.0,1.72160073267583,1
178,V1,d09172021,S5lJ6,reward_learning,2.0,34.0,38.0,1.0,151.0,230.0,-0.8279114259470047,1.0,407.0,-0.4529441351862038,1
179,V1,d09172021,S5lJ6,reward_learning,2.0,35.0,6.0,1.0,159.0,246.0,-0.782516187361048,1.0,380.0,-0.6202168173294371,1
180,V1,d09172021,S5lJ6,reward_learning,2.0,36.0,12.0,1.0,159.0,236.0,-0.810888211477271,1.0,391.0,-0.5520686875673791,1
181,V1,d09172021,S5lJ6,reward_learning,2.0,37.0,64.0,-1.0,0.0,266.0,-0.7257721391286022,-1.0,428.0,-0.32284316018591114,1
182,V1,d09172021,S5lJ6,reward_learning,2.0,38.0,6.0,1.0,159.0,250.0,-0.7711673777145589,1.0,483.0,0.017897488624379034,1
183,V1,d09172021,S5lJ6,reward_learning,2.0,39.0,23.0,-1.0,0.0,249.0,-0.7740045801261811,-1.0,415.0,-0.4033818589956161,1
184,V1,d09172021,S5lJ6,reward_learning,2.0,40.0,38.0,1.0,151.0,245.0,-0.7853533897726703,1.0,390.0,-0.5582639720912026,1
185,V1,d09172021,S5lJ6,reward_learning,2.0,41.0,50.0,-1.0,0.0,282.0,-0.6803769005426455,-1.0,461.0,-0.11839877089973705,1
186,V1,d09172021,S5lJ6,reward_learning,2.0,42.0,23.0,-1.0,0.0,649.0,0.36087638452273535,-1.0,329.0,-0.9361763280444335,1
187,V1,d09172021,S5lJ6,reward_learning,2.0,43.0,53.0,1.0,150.0,532.0,0.028923702362927284,1.0,274.0,-1.2769169768547237,1
188,V1,d09172021,S5lJ6,reward_learning,2.0,44.0,57.0,1.0,159.0,552.0,0.08566775059537311,1.0,284.0,-1.2149641316164892,1
189,V1,d09172021,S5lJ6,reward_learning,2.0,45.0,43.0,-1.0,0.0,799.0,0.7864567462660791,-1.0,563.0,0.5135202505302557,1
190,V1,d09172021,S5lJ6,reward_learning,2.0,46.0,30.0,1.0,143.0,484.0,-0.10726201339494269,1.0,264.0,-1.3388698220929582,1
191,V1,d09172021,S5lJ6,reward_learning,2.0,47.0,12.0,1.0,159.0,446.0,-0.21507570503658976,1.0,372.0,-0.6697790935200248,1
192,V1,d09172021,S5lJ6,reward_learning,3.0,48.0,53.0,1.0,150.0,530.0,0.0232492975396827,1.0,342.0,-0.8556376292347285,1
193,V1,d09172021,S5lJ6,reward_learning,3.0,49.0,38.0,1.0,151.0,337.0,-0.5243307679034195,1.0,315.0,-1.0229103113779618,1
194,V1,d09172021,S5lJ6,reward_learning,3.0,50.0,53.0,1.0,150.0,296.0,-0.6406560667799335,1.0,326.0,-0.9547621816159039,1
195,V1,d09172021,S5lJ6,reward_learning,3.0,51.0,66.0,-1.0,0.0,517.0,-0.013634333811407086,-1.0,469.0,-0.06883649470914938,1
196,V1,d09172021,S5lJ6,reward_learning,3.0,52.0,6.0,1.0,159.0,258.0,-0.7484697584215806,1.0,319.0,-0.9981291732826681,1
197,V1,d09172021,S5lJ6,reward_learning,3.0,53.0,30.0,1.0,143.0,397.0,-0.35409862320608204,1.0,245.0,-1.456580228045604,1
198,V1,d09172021,S5lJ6,reward_learning,3.0,54.0,66.0,-1.0,0.0,236.0,-0.810888211477271,-1.0,435.0,-0.279476168519147,1
199,V1,d09172021,S5lJ6,reward_learning,3.0,55.0,64.0,-1.0,0.0,273.0,-0.7059117222472462,-1.0,447.0,-0.20513275423326546,1
200,V1,d09172021,S5lJ6,reward_learning,3.0,56.0,57.0,1.0,159.0,740.0,0.6190618039803639,1.0,223.0,-1.5928764875697201,1
201,V1,d09172021,S5lJ6,reward_learning,3.0,57.0,12.0,1.0,159.0,276.0,-0.6974001150123793,1.0,344.0,-0.8432470601870816,1
202,V1,d09172021,S5lJ6,reward_learning,3.0,58.0,50.0,-1.0,0.0,1222.0,1.9865933663823083,-1.0,511.0,0.19136545529143587,1
203,V1,d09172021,S5lJ6,reward_learning,3.0,59.0,12.0,1.0,159.0,912.0,1.1070606187793979,1.0,324.0,-0.9671527506635508,1
204,V1,d09172021,S5lJ6,reward_learning,3.0,60.0,57.0,1.0,159.0,518.0,-0.010797131399784795,1.0,262.0,-1.3512603911406051,1
205,V1,d09172021,S5lJ6,reward_learning,3.0,61.0,43.0,-1.0,0.0,818.0,0.8403635920869026,-1.0,533.0,0.32766171481555195,1
206,V1,d09172021,S5lJ6,reward_learning,3.0,62.0,23.0,-1.0,0.0,287.0,-0.6661908884845341,-1.0,443.0,-0.2299138923285593,1
207,V1,d09172021,S5lJ6,reward_learning,3.0,63.0,63.0,-1.0,0.0,308.0,-0.606609637840466,-1.0,524.0,0.2719041541011408,1
208,V1,d09172021,S5lJ6,reward_learning,3.0,64.0,23.0,-1.0,0.0,1573.0,2.982451412861732,-1.0,325.0,-0.9609574661397273,1
209,V1,d09172021,S5lJ6,reward_learning,3.0,65.0,30.0,1.0,143.0,260.0,-0.7427953535983359,1.0,339.0,-0.8742234828061989,1
210,V1,d09172021,S5lJ6,reward_learning,3.0,66.0,6.0,1.0,159.0,372.0,-0.4250286834966393,1.0,244.0,-1.4627755125694275,1
211,V1,d09172021,S5lJ6,reward_learning,3.0,67.0,38.0,1.0,151.0,607.0,0.24171388323459914,1.0,241.0,-1.4813613661408978,1
212,V1,d09172021,S5lJ6,reward_learning,3.0,68.0,43.0,-1.0,0.0,531.0,0.026086499951304992,-1.0,431.0,-0.3042573066144408,1
213,V1,d09172021,S5lJ6,reward_learning,3.0,69.0,50.0,-1.0,0.0,273.0,-0.7059117222472462,-1.0,416.0,-0.3971865744717927,1
214,V1,d09172021,S5lJ6,reward_learning,3.0,70.0,64.0,-1.0,0.0,257.0,-0.7513069608332028,-1.0,348.0,-0.8184659220917878,1
215,V1,d09172021,S5lJ6,reward_learning,3.0,71.0,63.0,-1.0,0.0,790.0,0.7609219245614784,-1.0,503.0,0.1418031791008482,1
216,V1,d09172021,IDAjV,reward_learning,1.0,0.0,65.0,1.0,144.0,950.0,0.8853069618476317,1.0,1211.0,3.174926378859353,1
217,V1,d09172021,IDAjV,reward_learning,1.0,1.0,7.0,1.0,149.0,869.0,0.5995628586047634,1.0,631.0,0.9680465629339463,1
218,V1,d09172021,IDAjV,reward_learning,1.0,2.0,48.0,-1.0,0.0,592.0,-0.37761142038628004,-1.0,569.0,0.7321387205419201,1
219,V1,d09172021,IDAjV,reward_learning,1.0,3.0,48.0,-1.0,0.0,587.0,-0.3952499452778151,-1.0,297.0,-0.3028118138230981,1
220,V1,d09172021,IDAjV,reward_learning,1.0,4.0,7.0,1.0,149.0,487.0,-0.7480204431085167,1.0,327.0,-0.18866285782695638,1
221,V1,d09172021,IDAjV,reward_learning,1.0,5.0,25.0,1.0,143.0,891.0,0.6771723681275177,1.0,122.0,-0.9686807238005914,1
222,V1,d09172021,IDAjV,reward_learning,1.0,6.0,11.0,-1.0,0.0,614.0,-0.3000019108635257,1.0,233.0,-0.5463295866148671,0
223,V1,d09172021,IDAjV,reward_learning,1.0,7.0,34.0,1.0,150.0,1282.0,2.056505014645561,-1.0,425.0,0.1842237317604399,0
224,V1,d09172021,IDAjV,reward_learning,1.0,8.0,65.0,1.0,144.0,885.0,0.6560061382576756,1.0,851.0,1.8051389069056523,1
225,V1,d09172021,IDAjV,reward_learning,1.0,9.0,11.0,-1.0,0.0,1393.0,2.4480802672376396,-1.0,176.0,-0.7632126030075363,1
226,V1,d09172021,IDAjV,reward_learning,1.0,10.0,8.0,-1.0,0.0,836.0,0.48314859432063184,-1.0,719.0,1.3028835005226287,1
227,V1,d09172021,IDAjV,reward_learning,1.0,11.0,16.0,-1.0,0.0,471.0,-0.804463722761429,-1.0,580.0,0.7739933377405054,1
228,V1,d09172021,IDAjV,reward_learning,1.0,12.0,60.0,-1.0,0.0,648.0,-0.18005994160108713,-1.0,518.0,0.5380854953484793,1
229,V1,d09172021,IDAjV,reward_learning,1.0,13.0,60.0,-1.0,0.0,502.0,-0.6951048684339115,-1.0,290.0,-0.3294465702221978,1
230,V1,d09172021,IDAjV,reward_learning,1.0,14.0,54.0,-1.0,0.0,655.0,-0.15536600675293802,-1.0,537.0,0.6103798341460357,1
231,V1,d09172021,IDAjV,reward_learning,1.0,15.0,12.0,1.0,159.0,425.0,-0.9667381517635517,1.0,468.0,0.3478372353549097,1
232,V1,d09172021,IDAjV,reward_learning,1.0,16.0,62.0,1.0,158.0,541.0,-0.5575243742799378,1.0,796.0,1.5958658209127259,1
233,V1,d09172021,IDAjV,reward_learning,1.0,17.0,8.0,-1.0,0.0,569.0,-0.4587486348873414,-1.0,497.0,0.45818122615118,1
234,V1,d09172021,IDAjV,reward_learning,1.0,18.0,62.0,1.0,158.0,454.0,-0.8644347073926483,1.0,559.0,0.6940890685432063,1
235,V1,d09172021,IDAjV,reward_learning,1.0,19.0,25.0,1.0,143.0,530.0,-0.596329129041315,1.0,459.0,0.31359254855606716,1
236,V1,d09172021,IDAjV,reward_learning,1.0,20.0,34.0,1.0,150.0,426.0,-0.9632104467852447,1.0,398.0,0.08148967136391236,1
237,V1,d09172021,IDAjV,reward_learning,1.0,21.0,54.0,-1.0,0.0,504.0,-0.6880494584772975,-1.0,538.0,0.6141847993459071,1
238,V1,d09172021,IDAjV,reward_learning,1.0,22.0,16.0,-1.0,0.0,944.0,0.8641407319777896,-1.0,463.0,0.3288124093555527,1
239,V1,d09172021,IDAjV,reward_learning,1.0,23.0,12.0,1.0,159.0,695.0,-0.01425780762065739,1.0,818.0,1.6795750553098965,1
240,V1,d09172021,IDAjV,reward_learning,2.0,24.0,16.0,-1.0,0.0,362.0,-1.1889835653968936,-1.0,476.0,0.3782769569538808,1
241,V1,d09172021,IDAjV,reward_learning,2.0,25.0,48.0,-1.0,0.0,406.0,-1.033764546351385,-1.0,500.0,0.4695961217507942,1
242,V1,d09172021,IDAjV,reward_learning,2.0,26.0,65.0,1.0,144.0,626.0,-0.2576694511238415,1.0,672.0,1.1240501361286734,1
243,V1,d09172021,IDAjV,reward_learning,2.0,27.0,25.0,1.0,143.0,520.0,-0.6316061788243852,1.0,592.0,0.8196529201389621,1
244,V1,d09172021,IDAjV,reward_learning,2.0,28.0,65.0,1.0,144.0,495.0,-0.7197988032820606,1.0,393.0,0.0624648453645554,1
245,V1,d09172021,IDAjV,reward_learning,2.0,29.0,8.0,-1.0,0.0,352.0,-1.2242606151799638,-1.0,443.0,0.2527131053581249,1
246,V1,d09172021,IDAjV,reward_learning,2.0,30.0,54.0,-1.0,0.0,464.0,-0.829157657609578,-1.0,497.0,0.45818122615118,1
247,V1,d09172021,IDAjV,reward_learning,2.0,31.0,7.0,1.0,149.0,547.0,-0.5363581444100958,1.0,439.0,0.23749324455863938,1
248,V1,d09172021,IDAjV,reward_learning,2.0,32.0,60.0,-1.0,0.0,504.0,-0.6880494584772975,-1.0,313.0,-0.24193237062515585,1
249,V1,d09172021,IDAjV,reward_learning,2.0,33.0,62.0,1.0,158.0,829.0,0.45845465947248276,1.0,344.0,-0.12397844942914274,1
250,V1,d09172021,IDAjV,reward_learning,2.0,34.0,62.0,1.0,158.0,620.0,-0.2788356809936836,1.0,552.0,0.6674543121441066,1
251,V1,d09172021,IDAjV,reward_learning,2.0,35.0,8.0,-1.0,0.0,676.0,-0.0812842022084907,-1.0,665.0,1.0974153797295736,1
252,V1,d09172021,IDAjV,reward_learning,2.0,36.0,54.0,-1.0,0.0,407.0,-1.030236841373078,-1.0,652.0,1.0479508321312456,1
253,V1,d09172021,IDAjV,reward_learning,2.0,37.0,48.0,-1.0,0.0,454.0,-0.8644347073926483,-1.0,549.0,0.6560394165444924,1
254,V1,d09172021,IDAjV,reward_learning,2.0,38.0,34.0,1.0,150.0,549.0,-0.5293027344534817,1.0,1318.0,3.582057655245592,1
255,V1,d09172021,IDAjV,reward_learning,2.0,39.0,12.0,1.0,159.0,725.0,0.0915733417285531,1.0,633.0,0.9756564933336891,1
256,V1,d09172021,IDAjV,reward_learning,2.0,40.0,12.0,1.0,159.0,416.0,-0.9984874965683148,1.0,163.0,-0.8126771506058644,1
257,V1,d09172021,IDAjV,reward_learning,2.0,41.0,25.0,1.0,143.0,660.0,-0.13772748186140293,1.0,136.0,-0.915411211002392,1
258,V1,d09172021,IDAjV,reward_learning,2.0,42.0,60.0,-1.0,0.0,380.0,-1.1254848757873674,-1.0,324.0,-0.20007775342657055,1
259,V1,d09172021,IDAjV,reward_learning,2.0,43.0,7.0,1.0,149.0,512.0,-0.6598278186508413,1.0,122.0,-0.9686807238005914,1
260,V1,d09172021,IDAjV,reward_learning,2.0,44.0,11.0,-1.0,0.0,643.0,-0.1976984664926222,-1.0,338.0,-0.14680824062837108,1
261,V1,d09172021,IDAjV,reward_learning,2.0,45.0,34.0,1.0,150.0,515.0,-0.6492447037159202,1.0,316.0,-0.23051747502554168,1
262,V1,d09172021,IDAjV,reward_learning,2.0,46.0,16.0,-1.0,0.0,552.0,-0.5187196195185607,-1.0,468.0,0.3478372353549097,1
263,V1,d09172021,IDAjV,reward_learning,2.0,47.0,11.0,-1.0,0.0,273.0,-1.5029493084662182,-1.0,358.0,-0.07070893663094327,1
264,V1,d09172021,IDAjV,reward_learning,3.0,48.0,16.0,-1.0,0.0,376.0,-1.1395956957005955,-1.0,281.0,-0.3636912570210403,1
265,V1,d09172021,IDAjV,reward_learning,3.0,49.0,16.0,-1.0,0.0,517.0,-0.6421892937593062,-1.0,106.0,-1.0295601669985337,1
266,V1,d09172021,IDAjV,reward_learning,3.0,50.0,54.0,-1.0,0.0,481.0,-0.7691866729783589,-1.0,427.0,0.1918336621601827,1
267,V1,d09172021,IDAjV,reward_learning,3.0,51.0,34.0,1.0,150.0,698.0,-0.003674692685736341,1.0,161.0,-0.8202870810056072,1
268,V1,d09172021,IDAjV,reward_learning,3.0,52.0,54.0,-1.0,0.0,1020.0,1.1322463103291227,-1.0,103.0,-1.0409750625981478,1
269,V1,d09172021,IDAjV,reward_learning,3.0,53.0,12.0,1.0,159.0,1068.0,1.3015761492878595,1.0,209.0,-0.6376487514117805,1
270,V1,d09172021,IDAjV,reward_learning,3.0,54.0,48.0,-1.0,0.0,571.0,-0.4516932249307274,-1.0,106.0,-1.0295601669985337,1
271,V1,d09172021,IDAjV,reward_learning,3.0,55.0,62.0,1.0,158.0,1413.0,2.51863436680378,1.0,102.0,-1.0447800277980193,1
272,V1,d09172021,IDAjV,reward_learning,3.0,56.0,60.0,-1.0,0.0,932.0,0.8218082722381054,-1.0,115.0,-0.9953154801996912,1
273,V1,d09172021,IDAjV,reward_learning,3.0,57.0,7.0,1.0,149.0,591.0,-0.38113912536458705,1.0,275.0,-0.38652104822026867,1
274,V1,d09172021,IDAjV,reward_learning,3.0,58.0,60.0,-1.0,0.0,1533.0,2.941958964200622,-1.0,109.0,-1.0181452713989194,1
275,V1,d09172021,IDAjV,reward_learning,3.0,59.0,34.0,1.0,150.0,795.0,0.3385126902100442,1.0,113.0,-1.0029254105994339,1
276,V1,d09172021,IDAjV,reward_learning,3.0,60.0,11.0,-1.0,0.0,870.0,0.6030905635830704,-1.0,84.0,-1.1132694013957043,1
277,V1,d09172021,IDAjV,reward_learning,3.0,61.0,65.0,1.0,144.0,1375.0,2.3845815776281136,-1.0,65.0,-1.1855637401932606,0
278,V1,d09172021,IDAjV,reward_learning,3.0,62.0,8.0,-1.0,0.0,981.0,0.9946658161751492,-1.0,261.0,-0.43979056101846814,1
279,V1,d09172021,IDAjV,reward_learning,3.0,63.0,8.0,-1.0,0.0,955.0,0.9029454867391667,-1.0,140.0,-0.9001913502029064,1
280,V1,d09172021,IDAjV,reward_learning,3.0,64.0,65.0,1.0,144.0,1255.0,1.9612569802312716,1.0,77.0,-1.139904157794804,1
281,V1,d09172021,IDAjV,reward_learning,3.0,65.0,48.0,-1.0,0.0,707.0,0.0280746521190268,-1.0,70.0,-1.1665389141939038,1
282,V1,d09172021,IDAjV,reward_learning,3.0,66.0,12.0,1.0,159.0,641.0,-0.20475387644923626,1.0,78.0,-1.1360991925949326,1
283,V1,d09172021,IDAjV,reward_learning,3.0,67.0,25.0,1.0,143.0,903.0,0.7195048278672019,1.0,137.0,-0.9116062458025206,1
284,V1,d09172021,IDAjV,reward_learning,3.0,68.0,7.0,1.0,149.0,531.0,-0.592801424063008,1.0,76.0,-1.1437091229946754,1
285,V1,d09172021,IDAjV,reward_learning,3.0,69.0,62.0,1.0,158.0,1025.0,1.1498848352206579,1.0,116.0,-0.9915105149998198,1
286,V1,d09172021,IDAjV,reward_learning,3.0,70.0,11.0,-1.0,0.0,786.0,0.30676334540528105,-1.0,99.0,-1.0561949233976333,1
287,V1,d09172021,IDAjV,reward_learning,3.0,71.0,25.0,1.0,143.0,1070.0,1.3086315592444735,1.0,59.0,-1.208393531392489,1
288,V1,d09172021,59tg8,reward_learning,1.0,0.0,44.0,-1.0,0.0,1516.0,4.187526525759809,,,,0
289,V1,d09172021,59tg8,reward_learning,1.0,1.0,22.0,-1.0,0.0,1041.0,2.013013814235584,-1.0,838.0,0.916068708235012,1
290,V1,d09172021,59tg8,reward_learning,1.0,2.0,3.0,1.0,149.0,1133.0,2.4341825920465916,1.0,1256.0,3.343270486915369,1
291,V1,d09172021,59tg8,reward_learning,1.0,3.0,22.0,-1.0,0.0,914.0,1.431617783996475,-1.0,1074.0,2.286450573710046,1
292,V1,d09172021,59tg8,reward_learning,1.0,4.0,34.0,1.0,154.0,1099.0,2.2785332611164364,1.0,898.0,1.26447087742358,1
293,V1,d09172021,59tg8,reward_learning,1.0,5.0,39.0,1.0,152.0,850.0,1.138630808127948,1.0,900.0,1.2760842830631989,1
294,V1,d09172021,59tg8,reward_learning,1.0,6.0,16.0,1.0,140.0,788.0,0.8547996752553121,1.0,1008.0,1.9032081876026212,1
295,V1,d09172021,59tg8,reward_learning,1.0,7.0,42.0,-1.0,0.0,595.0,-0.028739173848215137,-1.0,879.0,1.1541435238472,1
296,V1,d09172021,59tg8,reward_learning,1.0,8.0,31.0,1.0,156.0,923.0,1.4728190774779866,1.0,740.0,0.34701183189368423,1
297,V1,d09172021,59tg8,reward_learning,1.0,9.0,44.0,-1.0,0.0,786.0,0.8456438322594206,-1.0,972.0,1.6941668860894805,1
298,V1,d09172021,59tg8,reward_learning,1.0,10.0,34.0,1.0,154.0,821.0,1.0058710846875214,1.0,665.0,-0.08849087959202576,1
299,V1,d09172021,59tg8,reward_learning,1.0,11.0,62.0,1.0,150.0,566.0,-0.1614988972886415,1.0,706.0,0.14958393602016237,1
300,V1,d09172021,59tg8,reward_learning,1.0,12.0,16.0,1.0,140.0,561.0,-0.18438850477837018,1.0,595.0,-0.49496007697868843,1
301,V1,d09172021,59tg8,reward_learning,1.0,13.0,31.0,1.0,156.0,689.0,0.40158544695868414,1.0,579.0,-0.5878673220956399,1
302,V1,d09172021,59tg8,reward_learning,1.0,14.0,3.0,1.0,149.0,579.0,-0.10198591781534692,1.0,899.0,1.2702775802433894,1
303,V1,d09172021,59tg8,reward_learning,1.0,15.0,55.0,-1.0,0.0,765.0,0.7495074808025601,-1.0,853.0,1.0031692505321539,1
304,V1,d09172021,59tg8,reward_learning,1.0,16.0,53.0,-1.0,0.0,736.0,0.6167477573621338,-1.0,831.0,0.8754217884963457,1
305,V1,d09172021,59tg8,reward_learning,1.0,17.0,62.0,1.0,150.0,828.0,1.0379165351731416,1.0,415.0,-1.5401665845443924,1
306,V1,d09172021,59tg8,reward_learning,1.0,18.0,55.0,-1.0,0.0,594.0,-0.033317095346160876,-1.0,723.0,0.24829788395692332,1
307,V1,d09172021,59tg8,reward_learning,1.0,19.0,60.0,-1.0,0.0,539.0,-0.28510277773317644,-1.0,760.0,0.4631458882898736,1
308,V1,d09172021,59tg8,reward_learning,1.0,20.0,53.0,-1.0,0.0,608.0,0.030773805625079444,-1.0,802.0,0.7070274067218711,1
309,V1,d09172021,59tg8,reward_learning,1.0,21.0,39.0,1.0,152.0,704.0,0.4702542694278702,1.0,786.0,0.6141201616049197,1
310,V1,d09172021,59tg8,reward_learning,1.0,22.0,60.0,-1.0,0.0,535.0,-0.30341446372495934,-1.0,675.0,-0.030423851393931094,1
311,V1,d09172021,59tg8,reward_learning,1.0,23.0,42.0,-1.0,0.0,495.0,-0.48653132364278884,-1.0,630.0,-0.2917254782853571,1
312,V1,d09172021,59tg8,reward_learning,2.0,24.0,44.0,-1.0,0.0,765.0,0.7495074808025601,-1.0,716.0,0.20765096421825704,1
313,V1,d09172021,59tg8,reward_learning,2.0,25.0,16.0,1.0,140.0,437.0,-0.7520507705236416,1.0,579.0,-0.5878673220956399,1
314,V1,d09172021,59tg8,reward_learning,2.0,26.0,34.0,1.0,154.0,471.0,-0.5964014395934866,1.0,642.0,-0.2220450444476435,1
315,V1,d09172021,59tg8,reward_learning,2.0,27.0,3.0,1.0,149.0,667.0,0.3008711740038779,1.0,712.0,0.18442415293901918,1
316,V1,d09172021,59tg8,reward_learning,2.0,28.0,55.0,-1.0,0.0,371.0,-1.0541935893880603,-1.0,600.0,-0.46592656287964107,1
317,V1,d09172021,59tg8,reward_learning,2.0,29.0,53.0,-1.0,0.0,411.0,-0.8710767294702307,-1.0,687.0,0.0392565824437825,1
318,V1,d09172021,59tg8,reward_learning,2.0,30.0,55.0,-1.0,0.0,443.0,-0.7245832415359672,-1.0,745.0,0.3760453459927316,1
319,V1,d09172021,59tg8,reward_learning,2.0,31.0,31.0,1.0,156.0,545.0,-0.257635248745502,1.0,671.0,-0.05365066267316896,1
320,V1,d09172021,59tg8,reward_learning,2.0,32.0,39.0,1.0,152.0,524.0,-0.3537716002023625,1.0,542.0,-0.8027153264285901,1
321,V1,d09172021,59tg8,reward_learning,2.0,33.0,42.0,-1.0,0.0,573.0,-0.12945344680302134,-1.0,571.0,-0.6343209446541156,1
322,V1,d09172021,59tg8,reward_learning,2.0,34.0,62.0,1.0,150.0,454.0,-0.6742261050585641,1.0,424.0,-1.4879062591661072,1
323,V1,d09172021,59tg8,reward_learning,2.0,35.0,22.0,-1.0,0.0,516.0,-0.3903949721859284,-1.0,611.0,-0.40205283186173696,1
324,V1,d09172021,59tg8,reward_learning,2.0,36.0,60.0,-1.0,0.0,476.0,-0.5735118321037579,-1.0,464.0,-1.2556381463737285,1
325,V1,d09172021,59tg8,reward_learning,2.0,37.0,16.0,1.0,140.0,372.0,-1.0496156678901145,1.0,667.0,-0.07687747395240682,1
326,V1,d09172021,59tg8,reward_learning,2.0,38.0,60.0,-1.0,0.0,652.0,0.23220235153469188,-1.0,644.0,-0.21043163880802457,1
327,V1,d09172021,59tg8,reward_learning,2.0,39.0,34.0,1.0,154.0,441.0,-0.7337390845318587,1.0,554.0,-0.7330348925908765,1
328,V1,d09172021,59tg8,reward_learning,2.0,40.0,31.0,1.0,156.0,299.0,-1.3838039372401534,1.0,738.0,0.3353984262540653,1
329,V1,d09172021,59tg8,reward_learning,2.0,41.0,39.0,1.0,152.0,585.0,-0.0745183888276725,1.0,473.0,-1.2033778209954433,1
330,V1,d09172021,59tg8,reward_learning,2.0,42.0,44.0,-1.0,0.0,649.0,0.21846858704085467,-1.0,1033.0,2.048375758097858,1
331,V1,d09172021,59tg8,reward_learning,2.0,43.0,22.0,-1.0,0.0,433.0,-0.7703624565154246,-1.0,698.0,0.10313031346168663,1
332,V1,d09172021,59tg8,reward_learning,2.0,44.0,42.0,-1.0,0.0,434.0,-0.7657845350174788,-1.0,723.0,0.24829788395692332,1
333,V1,d09172021,59tg8,reward_learning,2.0,45.0,62.0,1.0,150.0,615.0,0.0628192561106996,1.0,555.0,-0.7272281897710671,1
334,V1,d09172021,59tg8,reward_learning,2.0,46.0,53.0,-1.0,0.0,594.0,-0.033317095346160876,-1.0,593.0,-0.5065734826183074,1
335,V1,d09172021,59tg8,reward_learning,2.0,47.0,3.0,1.0,149.0,407.0,-0.8893884154620137,1.0,727.0,0.2715246952361612,1
336,V1,d09172021,59tg8,reward_learning,3.0,48.0,22.0,-1.0,0.0,962.0,1.6513580158978705,-1.0,739.0,0.3412051290738748,1
337,V1,d09172021,59tg8,reward_learning,3.0,49.0,39.0,1.0,152.0,532.0,-0.31714822821879657,1.0,457.0,-1.2962850661123948,1
338,V1,d09172021,59tg8,reward_learning,3.0,50.0,44.0,-1.0,0.0,391.0,-0.9626351594291455,-1.0,531.0,-0.8665890574464943,1
339,V1,d09172021,59tg8,reward_learning,3.0,51.0,3.0,1.0,149.0,635.0,0.15437768606961436,1.0,647.0,-0.19301153034859617,1
340,V1,d09172021,59tg8,reward_learning,3.0,52.0,60.0,-1.0,0.0,466.0,-0.6192910470832153,-1.0,768.0,0.5095995108483493,1
341,V1,d09172021,59tg8,reward_learning,3.0,53.0,44.0,-1.0,0.0,471.0,-0.5964014395934866,-1.0,613.0,-0.390439426222118,1
342,V1,d09172021,59tg8,reward_learning,3.0,54.0,31.0,1.0,156.0,427.0,-0.7978299855030989,1.0,551.0,-0.7504550010503049,1
343,V1,d09172021,59tg8,reward_learning,3.0,55.0,16.0,1.0,140.0,440.0,-0.7383170060298044,1.0,442.0,-1.3833856084095368,1
344,V1,d09172021,59tg8,reward_learning,3.0,56.0,34.0,1.0,154.0,486.0,-0.5277326171243005,1.0,366.0,-1.8246950227150562,1
345,V1,d09172021,59tg8,reward_learning,3.0,57.0,22.0,-1.0,0.0,393.0,-0.953479316433254,-1.0,425.0,-1.4820995563462978,1
346,V1,d09172021,59tg8,reward_learning,3.0,58.0,16.0,1.0,140.0,600.0,-0.005849566358486451,1.0,552.0,-0.7446482982304955,1
347,V1,d09172021,59tg8,reward_learning,3.0,59.0,55.0,-1.0,0.0,610.0,0.03992964862097092,-1.0,888.0,1.2064038492254854,1
348,V1,d09172021,59tg8,reward_learning,3.0,60.0,60.0,-1.0,0.0,803.0,0.9234684977244981,-1.0,847.0,0.9683290336132971,1
349,V1,d09172021,59tg8,reward_learning,3.0,61.0,34.0,1.0,154.0,487.0,-0.5231546956263547,1.0,475.0,-1.1917644153558244,1
350,V1,d09172021,59tg8,reward_learning,3.0,62.0,62.0,1.0,150.0,640.0,0.17726729355934304,1.0,618.0,-0.3614059121230707,1
351,V1,d09172021,59tg8,reward_learning,3.0,63.0,53.0,-1.0,0.0,592.0,-0.042472938342052347,-1.0,769.0,0.5154062136681588,1
352,V1,d09172021,59tg8,reward_learning,3.0,64.0,42.0,-1.0,0.0,737.0,0.6213256788600795,-1.0,550.0,-0.7562617038701144,1
353,V1,d09172021,59tg8,reward_learning,3.0,65.0,62.0,1.0,150.0,707.0,0.4839880339217074,1.0,418.0,-1.522746476084964,1
354,V1,d09172021,59tg8,reward_learning,3.0,66.0,53.0,-1.0,0.0,288.0,-1.4341610737175565,-1.0,502.0,-1.034983439220969,1
355,V1,d09172021,59tg8,reward_learning,3.0,67.0,42.0,-1.0,0.0,420.0,-0.8298754359887192,-1.0,543.0,-0.7969086236087807,1
356,V1,d09172021,59tg8,reward_learning,3.0,68.0,3.0,1.0,149.0,370.0,-1.058771510886006,1.0,586.0,-0.5472204023569737,1
357,V1,d09172021,59tg8,reward_learning,3.0,69.0,55.0,-1.0,0.0,313.0,-1.319713036268913,-1.0,698.0,0.10313031346168663,1
358,V1,d09172021,59tg8,reward_learning,3.0,70.0,31.0,1.0,156.0,359.0,-1.109128647363409,1.0,747.0,0.3876587516323505,1
359,V1,d09172021,59tg8,reward_learning,3.0,71.0,39.0,1.0,152.0,364.0,-1.0862390398736803,1.0,712.0,0.18442415293901918,1
360,V1,d09172021,VIK7A,reward_learning,1.0,0.0,58.0,1.0,150.0,987.0,3.640393752223527,1.0,770.0,2.8108032465011696,1
361,V1,d09172021,VIK7A,reward_learning,1.0,1.0,58.0,1.0,150.0,616.0,1.381468879769642,1.0,607.0,1.2663682588642142,1
362,V1,d09172021,VIK7A,reward_learning,1.0,2.0,14.0,1.0,142.0,624.0,1.4301788500651436,1.0,644.0,1.6169455259965293,1
363,V1,d09172021,VIK7A,reward_learning,1.0,3.0,32.0,1.0,143.0,421.0,0.19416335381679115,1.0,534.0,0.5746887858734306,1
364,V1,d09172021,VIK7A,reward_learning,1.0,4.0,57.0,-1.0,0.0,259.0,-0.7922135446671157,-1.0,652.0,1.6927460161873,1
365,V1,d09172021,VIK7A,reward_learning,1.0,5.0,32.0,1.0,143.0,322.0,-0.4086225285900408,1.0,500.0,0.25253670256265476,1
366,V1,d09172021,VIK7A,reward_learning,1.0,6.0,21.0,-1.0,0.0,517.0,0.77868299736281,-1.0,508.0,0.32833719275342554,1
367,V1,d09172021,VIK7A,reward_learning,1.0,7.0,11.0,-1.0,0.0,332.0,-0.3477350657206638,-1.0,578.0,0.9915914819226701,1
368,V1,d09172021,VIK7A,reward_learning,1.0,8.0,66.0,-1.0,0.0,371.0,-0.11027396053009368,-1.0,545.0,0.6789144598857405,1
369,V1,d09172021,VIK7A,reward_learning,1.0,9.0,14.0,1.0,142.0,339.0,-0.30511384171209993,1.0,453.0,-0.19279117730812373,1
370,V1,d09172021,VIK7A,reward_learning,1.0,10.0,29.0,1.0,157.0,435.0,0.2794058018339189,1.0,590.0,1.1052922172088264,1
371,V1,d09172021,VIK7A,reward_learning,1.0,11.0,20.0,-1.0,0.0,467.0,0.4742456830159252,-1.0,576.0,0.9726413593749774,1
372,V1,d09172021,VIK7A,reward_learning,1.0,12.0,50.0,-1.0,0.0,361.0,-0.17116142339947063,-1.0,539.0,0.6220640922426625,1
373,V1,d09172021,VIK7A,reward_learning,1.0,13.0,21.0,-1.0,0.0,519.0,0.7908604899366853,-1.0,422.0,-0.4865180767973606,1
374,V1,d09172021,VIK7A,reward_learning,1.0,14.0,20.0,-1.0,0.0,271.0,-0.7191485892238633,-1.0,455.0,-0.17384105476043102,1
375,V1,d09172021,VIK7A,reward_learning,1.0,15.0,11.0,-1.0,0.0,248.0,-0.8591897538234303,-1.0,414.0,-0.5623185669881314,1
376,V1,d09172021,VIK7A,reward_learning,1.0,16.0,29.0,1.0,157.0,347.0,-0.2564038714165984,1.0,603.0,1.2284680137688289,1
377,V1,d09172021,VIK7A,reward_learning,1.0,17.0,36.0,1.0,143.0,422.0,0.20025210010372882,1.0,464.0,-0.08856550329581386,1
378,V1,d09172021,VIK7A,reward_learning,1.0,18.0,50.0,-1.0,0.0,387.0,-0.012854019939090537,-1.0,483.0,0.0914606609072668,1
379,V1,d09172021,VIK7A,reward_learning,1.0,19.0,55.0,1.0,155.0,350.0,-0.2381376325557853,1.0,654.0,1.7116961387349927,1
380,V1,d09172021,VIK7A,reward_learning,1.0,20.0,55.0,1.0,155.0,285.0,-0.6339061412067355,1.0,438.0,-0.33491709641581896,1
381,V1,d09172021,VIK7A,reward_learning,1.0,21.0,57.0,-1.0,0.0,316.0,-0.445155006311667,-1.0,533.0,0.5652137245995843,1
382,V1,d09172021,VIK7A,reward_learning,1.0,22.0,66.0,-1.0,0.0,307.0,-0.4999537228941062,-1.0,503.0,0.28096188638419384,1
383,V1,d09172021,VIK7A,reward_learning,1.0,23.0,36.0,1.0,143.0,268.0,-0.7374148280846764,1.0,555.0,0.773665072624204,1
384,V1,d09172021,VIK7A,reward_learning,2.0,24.0,32.0,1.0,143.0,1057.0,4.0666059923091655,1.0,540.0,0.6315391535165088,1
385,V1,d09172021,VIK7A,reward_learning,2.0,25.0,29.0,1.0,157.0,343.0,-0.2807588565643492,1.0,455.0,-0.17384105476043102,1
386,V1,d09172021,VIK7A,reward_learning,2.0,26.0,36.0,1.0,143.0,341.0,-0.2929363491382246,1.0,461.0,-0.11699068711735292,1
387,V1,d09172021,VIK7A,reward_learning,2.0,27.0,11.0,-1.0,0.0,361.0,-0.17116142339947063,-1.0,475.0,0.015660170716495992,1
388,V1,d09172021,VIK7A,reward_learning,2.0,28.0,57.0,-1.0,0.0,321.0,-0.4147112748769785,-1.0,385.0,-0.8370953439296756,1
389,V1,d09172021,VIK7A,reward_learning,2.0,29.0,11.0,-1.0,0.0,374.0,-0.09200772166928059,-1.0,426.0,-0.44861783170197517,1
390,V1,d09172021,VIK7A,reward_learning,2.0,30.0,21.0,-1.0,0.0,312.0,-0.46950999145941774,-1.0,341.0,-1.253998039978915,1
391,V1,d09172021,VIK7A,reward_learning,2.0,31.0,58.0,1.0,150.0,266.0,-0.7495923206585517,1.0,485.0,0.1104107834549595,1
392,V1,d09172021,VIK7A,reward_learning,2.0,32.0,14.0,1.0,142.0,335.0,-0.32946882685985074,1.0,442.0,-0.2970168513204336,1
393,V1,d09172021,VIK7A,reward_learning,2.0,33.0,20.0,-1.0,0.0,279.0,-0.6704386189283618,-1.0,433.0,-0.3822924027850507,1
394,V1,d09172021,VIK7A,reward_learning,2.0,34.0,58.0,1.0,150.0,150.0,-1.4558868899433246,1.0,573.0,0.9442161755534384,1
395,V1,d09172021,VIK7A,reward_learning,2.0,35.0,36.0,1.0,143.0,261.0,-0.7800360520932402,1.0,439.0,-0.3254420351419726,1
396,V1,d09172021,VIK7A,reward_learning,2.0,36.0,55.0,1.0,155.0,291.0,-0.5973736634851093,1.0,438.0,-0.33491709641581896,1
397,V1,d09172021,VIK7A,reward_learning,2.0,37.0,50.0,-1.0,0.0,278.0,-0.6765273652152994,-1.0,515.0,0.39466262167035004,1
398,V1,d09172021,VIK7A,reward_learning,2.0,38.0,57.0,-1.0,0.0,336.0,-0.32338008057291306,-1.0,844.0,3.5119577807657993,1
399,V1,d09172021,VIK7A,reward_learning,2.0,39.0,55.0,1.0,155.0,287.0,-0.6217286486328601,1.0,558.0,0.802090256445743,1
400,V1,d09172021,VIK7A,reward_learning,2.0,40.0,14.0,1.0,142.0,375.0,-0.08591897538234289,1.0,389.0,-0.7991950988342902,1
401,V1,d09172021,VIK7A,reward_learning,2.0,41.0,20.0,-1.0,0.0,326.0,-0.38426754344229,-1.0,448.0,-0.24016648367735546,1
402,V1,d09172021,VIK7A,reward_learning,2.0,42.0,21.0,-1.0,0.0,309.0,-0.4877762303202308,-1.0,395.0,-0.742344731191212,1
403,V1,d09172021,VIK7A,reward_learning,2.0,43.0,32.0,1.0,143.0,373.0,-0.09809646795621828,1.0,581.0,1.0200166657442091,1
404,V1,d09172021,VIK7A,reward_learning,2.0,44.0,29.0,1.0,157.0,345.0,-0.2685813639904738,1.0,398.0,-0.713919547369673,1
405,V1,d09172021,VIK7A,reward_learning,2.0,45.0,50.0,-1.0,0.0,806.0,2.538330674287804,-1.0,320.0,-1.4529743267296884,1
406,V1,d09172021,VIK7A,reward_learning,2.0,46.0,66.0,-1.0,0.0,474.0,0.516866907024489,-1.0,446.0,-0.2591166062250482,1
407,V1,d09172021,VIK7A,reward_learning,2.0,47.0,66.0,-1.0,0.0,338.0,-0.31120258799903766,-1.0,336.0,-1.3013733463481467,1
408,V1,d09172021,VIK7A,reward_learning,3.0,48.0,32.0,1.0,143.0,494.0,0.6386418327632429,1.0,451.0,-0.2117412998558164,1
409,V1,d09172021,VIK7A,reward_learning,3.0,49.0,50.0,-1.0,0.0,371.0,-0.11027396053009368,-1.0,512.0,0.36623743784881096,1
410,V1,d09172021,VIK7A,reward_learning,3.0,50.0,55.0,1.0,155.0,705.0,1.923367299307097,1.0,277.0,-1.8604019615050815,1
411,V1,d09172021,VIK7A,reward_learning,3.0,51.0,36.0,1.0,143.0,331.0,-0.35382381200760155,1.0,432.0,-0.39176746405889706,1
412,V1,d09172021,VIK7A,reward_learning,3.0,52.0,50.0,-1.0,0.0,308.0,-0.49386497660716855,-1.0,463.0,-0.09804056456966022,1
413,V1,d09172021,VIK7A,reward_learning,3.0,53.0,29.0,1.0,157.0,407.0,0.10892090579966339,1.0,316.0,-1.4908745718250738,1
414,V1,d09172021,VIK7A,reward_learning,3.0,54.0,21.0,-1.0,0.0,318.0,-0.4329775137377916,-1.0,358.0,-1.092921998323527,1
415,V1,d09172021,VIK7A,reward_learning,3.0,55.0,21.0,-1.0,0.0,310.0,-0.48168748403329315,-1.0,407.0,-0.6286439959050558,1
416,V1,d09172021,VIK7A,reward_learning,3.0,56.0,58.0,1.0,150.0,337.0,-0.31729133428597533,1.0,508.0,0.32833719275342554,1
417,V1,d09172021,VIK7A,reward_learning,3.0,57.0,32.0,1.0,143.0,352.0,-0.2259601399819099,1.0,334.0,-1.3203234688958394,1
418,V1,d09172021,VIK7A,reward_learning,3.0,58.0,11.0,-1.0,0.0,329.0,-0.3660013045814769,-1.0,465.0,-0.07909044202196751,1
419,V1,d09172021,VIK7A,reward_learning,3.0,59.0,58.0,1.0,150.0,349.0,-0.244226378842723,1.0,409.0,-0.6096938733573631,1
420,V1,d09172021,VIK7A,reward_learning,3.0,60.0,20.0,-1.0,0.0,347.0,-0.2564038714165984,-1.0,400.0,-0.6949694248219803,1
421,V1,d09172021,VIK7A,reward_learning,3.0,61.0,66.0,-1.0,0.0,308.0,-0.49386497660716855,-1.0,534.0,0.5746887858734306,1
422,V1,d09172021,VIK7A,reward_learning,3.0,62.0,20.0,-1.0,0.0,350.0,-0.2381376325557853,-1.0,301.0,-1.633000490932769,1
423,V1,d09172021,VIK7A,reward_learning,3.0,63.0,57.0,-1.0,0.0,336.0,-0.32338008057291306,-1.0,514.0,0.38518756039650365,1
424,V1,d09172021,VIK7A,reward_learning,3.0,64.0,14.0,1.0,142.0,397.0,0.04803344293028643,1.0,359.0,-1.0834469370496806,1
425,V1,d09172021,VIK7A,reward_learning,3.0,65.0,36.0,1.0,143.0,338.0,-0.31120258799903766,1.0,355.0,-1.121347182145066,1
426,V1,d09172021,VIK7A,reward_learning,3.0,66.0,11.0,-1.0,0.0,313.0,-0.46342124517248007,-1.0,387.0,-0.8181452213819829,1
427,V1,d09172021,VIK7A,reward_learning,3.0,67.0,14.0,1.0,142.0,325.0,-0.3903562897292277,1.0,408.0,-0.6191689346312095,1
428,V1,d09172021,VIK7A,reward_learning,3.0,68.0,66.0,-1.0,0.0,313.0,-0.46342124517248007,-1.0,365.0,-1.0265965694066026,1
429,V1,d09172021,VIK7A,reward_learning,3.0,69.0,29.0,1.0,157.0,335.0,-0.32946882685985074,1.0,505.0,0.2999120089318865,1
430,V1,d09172021,VIK7A,reward_learning,3.0,70.0,57.0,-1.0,0.0,964.0,3.50035258762396,-1.0,311.0,-1.5382498781943055,1
431,V1,d09172021,VIK7A,reward_learning,3.0,71.0,55.0,1.0,155.0,370.0,-0.11636270681703137,1.0,567.0,0.8873658079103602,1
432,V1,d09142021,eGaxL,reward_learning,1.0,0.0,49.0,1.0,156.0,2453.0,5.503618864327464,,,,0
433,V1,d09142021,eGaxL,reward_learning,1.0,1.0,63.0,1.0,153.0,1436.0,2.195049460026175,1.0,350.0,-0.14010255185013004,1
434,V1,d09142021,eGaxL,reward_learning,1.0,2.0,60.0,-1.0,0.0,928.0,0.5423913898343804,-1.0,600.0,1.7047196257016553,1
435,V1,d09142021,eGaxL,reward_learning,1.0,3.0,52.0,1.0,152.0,716.0,-0.14730056071810085,1.0,478.0,0.804446403056384,1
436,V1,d09142021,eGaxL,reward_learning,1.0,4.0,13.0,-1.0,0.0,660.0,-0.3294833401093223,-1.0,492.0,0.907756444999284,1
437,V1,d09142021,eGaxL,reward_learning,1.0,5.0,48.0,1.0,152.0,707.0,-0.1765799359774043,1.0,380.0,0.0812761094560842,1
438,V1,d09142021,eGaxL,reward_learning,1.0,6.0,37.0,-1.0,0.0,440.0,-1.0452014020034066,-1.0,429.0,0.44286125625623407,1
439,V1,d09142021,eGaxL,reward_learning,1.0,7.0,32.0,-1.0,0.0,326.0,-1.4160734886212503,-1.0,580.0,1.5571338514975124,1
440,V1,d09142021,eGaxL,reward_learning,1.0,8.0,49.0,1.0,156.0,426.0,-1.0907470968512119,1.0,436.0,0.4945162772276841,1
441,V1,d09142021,eGaxL,reward_learning,1.0,9.0,0.0,1.0,149.0,767.0,0.018615899084618696,1.0,396.0,0.19934472881939844,1
442,V1,d09142021,eGaxL,reward_learning,1.0,10.0,10.0,1.0,150.0,276.0,-1.5787366845062694,-1.0,444.0,0.5535505869093412,0
443,V1,d09142021,eGaxL,reward_learning,1.0,11.0,24.0,-1.0,0.0,645.0,-0.37828229887482806,-1.0,450.0,0.597826319170584,1
444,V1,d09142021,eGaxL,reward_learning,1.0,12.0,63.0,1.0,153.0,629.0,-0.43033452155803414,1.0,398.0,0.21410330623981272,1
445,V1,d09142021,eGaxL,reward_learning,1.0,13.0,37.0,-1.0,0.0,282.0,-1.559217101000067,-1.0,438.0,0.5092748546480984,1
446,V1,d09142021,eGaxL,reward_learning,1.0,14.0,6.0,-1.0,0.0,630.0,-0.4270812576403338,-1.0,564.0,1.4390652321341981,1
447,V1,d09142021,eGaxL,reward_learning,1.0,15.0,10.0,1.0,150.0,670.0,-0.29695070093231846,1.0,396.0,0.19934472881939844,1
448,V1,d09142021,eGaxL,reward_learning,1.0,16.0,6.0,-1.0,0.0,644.0,-0.3815355627925284,-1.0,480.0,0.8192049804767982,1
449,V1,d09142021,eGaxL,reward_learning,1.0,17.0,52.0,1.0,152.0,671.0,-0.2936974370146181,1.0,445.0,0.5609298756195483,1
450,V1,d09142021,eGaxL,reward_learning,1.0,18.0,13.0,-1.0,0.0,965.0,0.6627621547892946,-1.0,520.0,1.114376528885084,1
451,V1,d09142021,eGaxL,reward_learning,1.0,19.0,0.0,1.0,149.0,584.0,-0.5767313978545514,1.0,388.0,0.1403104191377413,1
452,V1,d09142021,eGaxL,reward_learning,1.0,20.0,48.0,1.0,152.0,750.0,-0.03668958751628782,1.0,486.0,0.8634807127380412,1
453,V1,d09142021,eGaxL,reward_learning,1.0,21.0,60.0,-1.0,0.0,590.0,-0.5572118143483491,-1.0,363.0,-0.0441717986174372,1
454,V1,d09142021,eGaxL,reward_learning,1.0,22.0,32.0,-1.0,0.0,631.0,-0.4238279937226334,-1.0,523.0,1.1365143950157053,1
455,V1,d09142021,eGaxL,reward_learning,1.0,23.0,24.0,-1.0,0.0,547.0,-0.6971021628094656,-1.0,476.0,0.7896878256359697,1
456,V1,d09142021,eGaxL,reward_learning,2.0,24.0,6.0,-1.0,0.0,1172.0,1.3361877857532738,-1.0,417.0,0.3543097917337484,1
457,V1,d09142021,eGaxL,reward_learning,2.0,25.0,0.0,1.0,149.0,623.0,-0.44985410506423645,1.0,382.0,0.09603468687649848,1
458,V1,d09142021,eGaxL,reward_learning,2.0,26.0,37.0,-1.0,0.0,537.0,-0.7296348019864694,-1.0,447.0,0.5756884530399626,1
459,V1,d09142021,eGaxL,reward_learning,2.0,27.0,13.0,-1.0,0.0,264.0,-1.617775851518674,-1.0,424.0,0.4059648127051984,1
460,V1,d09142021,eGaxL,reward_learning,2.0,28.0,10.0,1.0,150.0,539.0,-0.7231282741510686,1.0,619.0,1.8449261111955908,1
461,V1,d09142021,eGaxL,reward_learning,2.0,29.0,60.0,-1.0,0.0,580.0,-0.589744453525353,-1.0,483.0,0.8413428466074196,1
462,V1,d09142021,eGaxL,reward_learning,2.0,30.0,32.0,-1.0,0.0,512.0,-0.810966399928979,-1.0,317.0,-0.3836190792869657,1
463,V1,d09142021,eGaxL,reward_learning,2.0,31.0,37.0,-1.0,0.0,577.0,-0.599504245278454,-1.0,368.0,-0.007275355066401495,1
464,V1,d09142021,eGaxL,reward_learning,2.0,32.0,63.0,1.0,153.0,712.0,-0.16031361638890237,1.0,629.0,1.9187189982976622,1
465,V1,d09142021,eGaxL,reward_learning,2.0,33.0,24.0,-1.0,0.0,1032.0,0.8807308372752202,-1.0,365.0,-0.02941322119702292,1
466,V1,d09142021,eGaxL,reward_learning,2.0,34.0,32.0,-1.0,0.0,743.0,-0.059462434940190496,-1.0,278.0,-0.6714113389850441,1
467,V1,d09142021,eGaxL,reward_learning,2.0,35.0,60.0,-1.0,0.0,620.0,-0.4596138968173376,-1.0,207.0,-1.1953408374097512,1
468,V1,d09142021,eGaxL,reward_learning,2.0,36.0,0.0,1.0,149.0,723.0,-0.12452771329419816,1.0,212.0,-1.1584443938587154,1
469,V1,d09142021,eGaxL,reward_learning,2.0,37.0,48.0,1.0,152.0,667.0,-0.3067104926854196,1.0,301.0,-0.50168769865028,1
470,V1,d09142021,eGaxL,reward_learning,2.0,38.0,52.0,1.0,152.0,684.0,-0.2514050060845131,1.0,217.0,-1.1215479503076797,1
471,V1,d09142021,eGaxL,reward_learning,2.0,39.0,49.0,1.0,156.0,1200.0,1.4272791754488845,1.0,305.0,-0.4721705438094514,1
472,V1,d09142021,eGaxL,reward_learning,2.0,40.0,49.0,1.0,156.0,754.0,-0.023676531845486286,1.0,393.0,0.17720686268877703,1
473,V1,d09142021,eGaxL,reward_learning,2.0,41.0,10.0,1.0,150.0,790.0,0.09344096919172751,1.0,427.0,0.4281026788358198,1
474,V1,d09142021,eGaxL,reward_learning,2.0,42.0,24.0,-1.0,0.0,950.0,0.6139631960237888,-1.0,244.0,-0.9223071551320869,1
475,V1,d09142021,eGaxL,reward_learning,2.0,43.0,48.0,1.0,152.0,643.0,-0.3847888267102288,1.0,303.0,-0.48692912122986565,1
476,V1,d09142021,eGaxL,reward_learning,2.0,44.0,13.0,-1.0,0.0,802.0,0.1324801362041321,-1.0,200.0,-1.246995858381201,1
477,V1,d09142021,eGaxL,reward_learning,2.0,45.0,6.0,-1.0,0.0,752.0,-0.03018305968088705,-1.0,175.0,-1.4314780761363797,1
478,V1,d09142021,eGaxL,reward_learning,2.0,46.0,63.0,1.0,153.0,879.0,0.3829814578670616,1.0,257.0,-0.8263764018993941,1
479,V1,d09142021,eGaxL,reward_learning,2.0,47.0,52.0,1.0,152.0,670.0,-0.29695070093231846,1.0,246.0,-0.9075485777116726,1
480,V1,d09142021,eGaxL,reward_learning,3.0,48.0,37.0,-1.0,0.0,1315.0,1.8014045259844287,-1.0,258.0,-0.818997113189187,1
481,V1,d09142021,eGaxL,reward_learning,3.0,49.0,13.0,-1.0,0.0,790.0,0.09344096919172751,-1.0,165.0,-1.505270963238451,1
482,V1,d09142021,eGaxL,reward_learning,3.0,50.0,32.0,-1.0,0.0,695.0,-0.21561910298980888,-1.0,266.0,-0.7599628035075299,1
483,V1,d09142021,eGaxL,reward_learning,3.0,51.0,24.0,-1.0,0.0,800.0,0.12597360836873134,-1.0,182.0,-1.3798230551649298,1
484,V1,d09142021,eGaxL,reward_learning,3.0,52.0,6.0,-1.0,0.0,599.0,-0.5279324390890456,-1.0,221.0,-1.0920307954668511,1
485,V1,d09142021,eGaxL,reward_learning,3.0,53.0,48.0,1.0,152.0,685.0,-0.2481517421668127,1.0,228.0,-1.0403757744954012,1
486,V1,d09142021,eGaxL,reward_learning,3.0,54.0,60.0,-1.0,0.0,1541.0,2.5366421713847154,-1.0,183.0,-1.3724437664547227,1
487,V1,d09142021,eGaxL,reward_learning,3.0,55.0,52.0,1.0,152.0,618.0,-0.4661204246527384,1.0,245.0,-0.9149278664218798,1
488,V1,d09142021,eGaxL,reward_learning,3.0,56.0,49.0,1.0,156.0,954.0,0.6269762516945904,1.0,364.0,-0.036792509907230056,1
489,V1,d09142021,eGaxL,reward_learning,3.0,57.0,32.0,-1.0,0.0,1000.0,0.7766263919088079,-1.0,720.0,2.590234270926512,1
490,V1,d09142021,eGaxL,reward_learning,3.0,58.0,6.0,-1.0,0.0,832.0,0.2300780537351436,-1.0,184.0,-1.3650644777445153,1
491,V1,d09142021,eGaxL,reward_learning,3.0,59.0,63.0,1.0,153.0,774.0,0.041388746508521375,1.0,551.0,1.3431344789015052,1
492,V1,d09142021,eGaxL,reward_learning,3.0,60.0,24.0,-1.0,0.0,823.0,0.20079867847584015,-1.0,192.0,-1.3060301680628583,1
493,V1,d09142021,eGaxL,reward_learning,3.0,61.0,0.0,1.0,149.0,759.0,-0.00741021225698437,1.0,243.0,-0.9296864438422942,1
494,V1,d09142021,eGaxL,reward_learning,3.0,62.0,52.0,1.0,152.0,645.0,-0.37828229887482806,1.0,549.0,1.328375901481091,1
495,V1,d09142021,eGaxL,reward_learning,3.0,63.0,10.0,1.0,150.0,748.0,-0.04319611535168858,1.0,525.0,1.1512729724361197,1
496,V1,d09142021,eGaxL,reward_learning,3.0,64.0,48.0,1.0,152.0,618.0,-0.4661204246527384,1.0,360.0,-0.06630966474805862,1
497,V1,d09142021,eGaxL,reward_learning,3.0,65.0,63.0,1.0,153.0,890.0,0.4187673609617658,1.0,493.0,0.9151357337094911,1
498,V1,d09142021,eGaxL,reward_learning,3.0,66.0,0.0,1.0,149.0,718.0,-0.14079403288270007,1.0,336.0,-0.24341259379303,1
499,V1,d09142021,eGaxL,reward_learning,3.0,67.0,60.0,-1.0,0.0,880.0,0.386234721784762,-1.0,135.0,-1.7266496245446654,1
500,V1,d09142021,eGaxL,reward_learning,3.0,68.0,49.0,1.0,156.0,843.0,0.2658639568298478,1.0,314.0,-0.4057569454175871,1
501,V1,d09142021,eGaxL,reward_learning,3.0,69.0,37.0,-1.0,0.0,791.0,0.09669423310942789,-1.0,162.0,-1.5274088293690724,1
502,V1,d09142021,eGaxL,reward_learning,3.0,70.0,10.0,1.0,150.0,959.0,0.6432425712830923,1.0,409.0,0.29527548205209125,1
503,V1,d09142021,eGaxL,reward_learning,3.0,71.0,13.0,-1.0,0.0,737.0,-0.0789820184463928,-1.0,185.0,-1.3576851890343082,1
504,V1,d09172021,NtP4V,reward_learning,1.0,0.0,39.0,1.0,150.0,1260.0,3.514874968101785,,,,0
505,V1,d09172021,NtP4V,reward_learning,1.0,1.0,65.0,1.0,144.0,1245.0,3.443407520147309,1.0,1545.0,2.5170583074141586,1
506,V1,d09172021,NtP4V,reward_learning,1.0,2.0,31.0,-1.0,0.0,1335.0,3.872212207874163,-1.0,764.0,-0.16854328201884283,1
507,V1,d09172021,NtP4V,reward_learning,1.0,3.0,43.0,-1.0,0.0,909.0,1.8425366859670549,-1.0,1101.0,0.9902886458158838,1
508,V1,d09172021,NtP4V,reward_learning,1.0,4.0,14.0,1.0,141.0,825.0,1.4423189774219913,1.0,1830.0,3.4970793739806187,1
509,V1,d09172021,NtP4V,reward_learning,1.0,5.0,11.0,1.0,151.0,604.0,0.38936524422605034,1.0,1077.0,0.9077605559997609,1
510,V1,d09172021,NtP4V,reward_learning,1.0,6.0,19.0,-1.0,0.0,841.0,1.5185509219067652,-1.0,829.0,0.054970294566490205,1
511,V1,d09172021,NtP4V,reward_learning,1.0,7.0,14.0,1.0,141.0,652.0,0.6180610776803723,1.0,1518.0,2.4242142063710204,1
512,V1,d09172021,NtP4V,reward_learning,1.0,8.0,49.0,-1.0,0.0,454.0,-0.325309235318706,-1.0,837.0,0.08247965783853119,1
513,V1,d09172021,NtP4V,reward_learning,1.0,9.0,43.0,-1.0,0.0,529.0,0.032028004453672175,-1.0,1045.0,0.7977231029115969,1
514,V1,d09172021,NtP4V,reward_learning,1.0,10.0,31.0,-1.0,0.0,455.0,-0.3205447387884076,-1.0,899.0,0.29567722319684886,1
515,V1,d09172021,NtP4V,reward_learning,1.0,11.0,65.0,1.0,144.0,608.0,0.4084232303472438,1.0,814.0,0.003390238431413348,1
516,V1,d09172021,NtP4V,reward_learning,1.0,12.0,67.0,1.0,141.0,521.0,-0.006087967788714832,1.0,1150.0,1.1587834958571348,1
517,V1,d09172021,NtP4V,reward_learning,1.0,13.0,49.0,-1.0,0.0,506.0,-0.07755541574319046,-1.0,727.0,-0.2957740871520324,1
518,V1,d09172021,NtP4V,reward_learning,1.0,14.0,59.0,1.0,147.0,549.0,0.12731793505963968,1.0,870.0,0.19595578133570027,1
519,V1,d09172021,NtP4V,reward_learning,1.0,15.0,59.0,1.0,147.0,357.0,-0.7874653987576484,1.0,813.0,-4.843197759177563e-05,1
520,V1,d09172021,NtP4V,reward_learning,1.0,16.0,5.0,-1.0,0.0,789.0,1.2707971023312499,-1.0,826.0,0.04465428333947483,1
521,V1,d09172021,NtP4V,reward_learning,1.0,17.0,11.0,1.0,151.0,398.0,-0.592121041015415,1.0,885.0,0.24753583747077712,1
522,V1,d09172021,NtP4V,reward_learning,1.0,18.0,39.0,1.0,150.0,345.0,-0.844639357121229,1.0,934.0,0.4160306875120282,1
523,V1,d09172021,NtP4V,reward_learning,1.0,19.0,67.0,1.0,141.0,480.0,-0.20143232553094823,1.0,870.0,0.19595578133570027,1
524,V1,d09172021,NtP4V,reward_learning,1.0,20.0,69.0,-1.0,0.0,523.0,0.0034410252718819192,-1.0,853.0,0.13749838438261316,1
525,V1,d09172021,NtP4V,reward_learning,1.0,21.0,5.0,-1.0,0.0,582.0,0.2845463205594861,-1.0,1037.0,0.7702137396395559,1
526,V1,d09172021,NtP4V,reward_learning,1.0,22.0,19.0,-1.0,0.0,529.0,0.032028004453672175,-1.0,869.0,0.19251711092669516,1
527,V1,d09172021,NtP4V,reward_learning,1.0,23.0,69.0,-1.0,0.0,382.0,-0.6683529855001891,-1.0,1381.0,1.9531163603373185,1
528,V1,d09172021,NtP4V,reward_learning,2.0,24.0,39.0,1.0,150.0,911.0,1.8520656790276515,1.0,867.0,0.1856397701086849,1
529,V1,d09172021,NtP4V,reward_learning,2.0,25.0,39.0,1.0,150.0,578.0,0.26548833443829256,1.0,1053.0,0.8252324661836379,1
530,V1,d09172021,NtP4V,reward_learning,2.0,26.0,31.0,-1.0,0.0,557.0,0.16543390730202667,-1.0,1213.0,1.3754197316244576,1
531,V1,d09172021,NtP4V,reward_learning,2.0,27.0,5.0,-1.0,0.0,506.0,-0.07755541574319046,-1.0,1574.0,2.6167797492753073,1
532,V1,d09172021,NtP4V,reward_learning,2.0,28.0,14.0,1.0,141.0,397.0,-0.5968855375457134,1.0,940.0,0.43666270996605894,1
533,V1,d09172021,NtP4V,reward_learning,2.0,29.0,43.0,-1.0,0.0,326.0,-0.935164791196898,-1.0,855.0,0.14437572520062342,1
534,V1,d09172021,NtP4V,reward_learning,2.0,30.0,31.0,-1.0,0.0,441.0,-0.38724769021258487,-1.0,518.0,-1.0144562026341033,1
535,V1,d09172021,NtP4V,reward_learning,2.0,31.0,11.0,1.0,151.0,381.0,-0.6731174820304874,1.0,755.0,-0.19949131569988895,1
536,V1,d09172021,NtP4V,reward_learning,2.0,32.0,5.0,-1.0,0.0,365.0,-0.7493494265152614,-1.0,645.0,-0.5777450606904525,1
537,V1,d09172021,NtP4V,reward_learning,2.0,33.0,49.0,-1.0,0.0,337.0,-0.8827553293636159,-1.0,638.0,-0.6018157535534884,1
538,V1,d09172021,NtP4V,reward_learning,2.0,34.0,67.0,1.0,141.0,587.0,0.3083688032109779,1.0,781.0,-0.11008588506575573,1
539,V1,d09172021,NtP4V,reward_learning,2.0,35.0,59.0,1.0,147.0,403.0,-0.5682985583639232,1.0,1103.0,0.9971659866338941,1
540,V1,d09172021,NtP4V,reward_learning,2.0,36.0,11.0,1.0,151.0,392.0,-0.6207080201972053,1.0,781.0,-0.11008588506575573,1
541,V1,d09172021,NtP4V,reward_learning,2.0,37.0,19.0,-1.0,0.0,462.0,-0.287193263076319,-1.0,688.0,-0.4298822331032322,1
542,V1,d09172021,NtP4V,reward_learning,2.0,38.0,14.0,1.0,141.0,546.0,0.11302444546874456,1.0,893.0,0.27504520074281813,1
543,V1,d09172021,NtP4V,reward_learning,2.0,39.0,19.0,-1.0,0.0,443.0,-0.37771869715198814,-1.0,470.0,-1.1795123822663491,1
544,V1,d09172021,NtP4V,reward_learning,2.0,40.0,69.0,-1.0,0.0,399.0,-0.5873565444851166,-1.0,629.0,-0.6327637872345345,1
545,V1,d09172021,NtP4V,reward_learning,2.0,41.0,43.0,-1.0,0.0,470.0,-0.24907729083393199,-1.0,941.0,0.440101380375064,1
546,V1,d09172021,NtP4V,reward_learning,2.0,42.0,67.0,1.0,141.0,379.0,-0.6826464750910841,1.0,886.0,0.25097450787978226,1
547,V1,d09172021,NtP4V,reward_learning,2.0,43.0,65.0,1.0,144.0,437.0,-0.40630567633377834,1.0,869.0,0.19251711092669516,1
548,V1,d09172021,NtP4V,reward_learning,2.0,44.0,69.0,-1.0,0.0,420.0,-0.48730211734885076,-1.0,711.0,-0.35079281369611437,1
549,V1,d09172021,NtP4V,reward_learning,2.0,45.0,65.0,1.0,144.0,319.0,-0.9685162669089866,1.0,869.0,0.19251711092669516,1
550,V1,d09172021,NtP4V,reward_learning,2.0,46.0,59.0,1.0,147.0,442.0,-0.3824831936822865,1.0,686.0,-0.4367595739212425,1
551,V1,d09172021,NtP4V,reward_learning,2.0,47.0,49.0,-1.0,0.0,445.0,-0.36818970409139135,-1.0,597.0,-0.7428012403226985,1
552,V1,d09172021,NtP4V,reward_learning,3.0,48.0,65.0,1.0,144.0,655.0,0.6323545672712675,1.0,628.0,-0.6362024576435397,1
553,V1,d09172021,NtP4V,reward_learning,3.0,49.0,19.0,-1.0,0.0,349.0,-0.8255813710000354,-1.0,517.0,-1.0178948730431083,1
554,V1,d09172021,NtP4V,reward_learning,3.0,50.0,19.0,-1.0,0.0,345.0,-0.844639357121229,-1.0,460.0,-1.2138990863564003,1
555,V1,d09172021,NtP4V,reward_learning,3.0,51.0,39.0,1.0,150.0,321.0,-0.9589872738483899,1.0,590.0,-0.7668719331857343,1
556,V1,d09172021,NtP4V,reward_learning,3.0,52.0,67.0,1.0,141.0,341.0,-0.8636973432424224,1.0,557.0,-0.8803480566829034,1
557,V1,d09172021,NtP4V,reward_learning,3.0,53.0,69.0,-1.0,0.0,502.0,-0.09661340186438397,-1.0,449.0,-1.2517244608554567,1
558,V1,d09172021,NtP4V,reward_learning,3.0,54.0,43.0,-1.0,0.0,385.0,-0.6540594959092939,-1.0,603.0,-0.7221692178686677,1
559,V1,d09172021,NtP4V,reward_learning,3.0,55.0,31.0,-1.0,0.0,641.0,0.5656516158470902,-1.0,503.0,-1.06603625876918,1
560,V1,d09172021,NtP4V,reward_learning,3.0,56.0,5.0,-1.0,0.0,525.0,0.01297001833247867,-1.0,653.0,-0.5502356974184116,1
561,V1,d09172021,NtP4V,reward_learning,3.0,57.0,69.0,-1.0,0.0,551.0,0.13684692812023644,-1.0,356.0,-1.5715208088929333,1
562,V1,d09172021,NtP4V,reward_learning,3.0,58.0,14.0,1.0,141.0,569.0,0.2226078656656072,1.0,683.0,-0.44707558514825785,1
563,V1,d09172021,NtP4V,reward_learning,3.0,59.0,67.0,1.0,141.0,384.0,-0.6588239924395922,1.0,747.0,-0.22700067897192994,1
564,V1,d09172021,NtP4V,reward_learning,3.0,60.0,49.0,-1.0,0.0,466.0,-0.26813527695512546,-1.0,405.0,-1.4030259588516822,1
565,V1,d09172021,NtP4V,reward_learning,3.0,61.0,43.0,-1.0,0.0,398.0,-0.592121041015415,-1.0,529.0,-0.9766308281350469,1
566,V1,d09172021,NtP4V,reward_learning,3.0,62.0,11.0,1.0,151.0,500.0,-0.10614239492498072,1.0,700.0,-0.38861818819517074,1
567,V1,d09172021,NtP4V,reward_learning,3.0,63.0,39.0,1.0,150.0,395.0,-0.6064145306063101,1.0,725.0,-0.30265142797004263,1
568,V1,d09172021,NtP4V,reward_learning,3.0,64.0,14.0,1.0,141.0,604.0,0.38936524422605034,1.0,692.0,-0.41612755146721175,1
569,V1,d09172021,NtP4V,reward_learning,3.0,65.0,31.0,-1.0,0.0,437.0,-0.40630567633377834,-1.0,386.0,-1.4683606966227796,1
570,V1,d09172021,NtP4V,reward_learning,3.0,66.0,65.0,1.0,144.0,555.0,0.15590491424142994,1.0,841.0,0.09623433947455169,1
571,V1,d09172021,NtP4V,reward_learning,3.0,67.0,5.0,-1.0,0.0,288.0,-1.1162156593482364,-1.0,1077.0,0.9077605559997609,1
572,V1,d09172021,NtP4V,reward_learning,3.0,68.0,59.0,1.0,147.0,351.0,-0.8160523779394386,1.0,773.0,-0.1375952483377967,1
573,V1,d09172021,NtP4V,reward_learning,3.0,69.0,59.0,1.0,147.0,424.0,-0.46824413122765723,1.0,476.0,-1.1588803598123185,1
574,V1,d09172021,NtP4V,reward_learning,3.0,70.0,11.0,1.0,151.0,354.0,-0.8017588883485435,1.0,524.0,-0.9938241801800725,1
575,V1,d09172021,NtP4V,reward_learning,3.0,71.0,49.0,-1.0,0.0,643.0,0.575180608907687,-1.0,414.0,-1.372077925170636,1
576,V1,d09172021,UmcnU,reward_learning,1.0,0.0,66.0,-1.0,0.0,1003.0,2.317273697731732,,,,0
577,V1,d09172021,UmcnU,reward_learning,1.0,1.0,5.0,1.0,158.0,624.0,0.301790665166439,1.0,808.0,1.352728767818292,1
578,V1,d09172021,UmcnU,reward_learning,1.0,2.0,34.0,1.0,157.0,817.0,1.328144821591509,1.0,925.0,2.1187740247728595,1
579,V1,d09172021,UmcnU,reward_learning,1.0,3.0,43.0,-1.0,0.0,843.0,1.4664101483637983,-1.0,860.0,1.6931933264647665,1
580,V1,d09172021,UmcnU,reward_learning,1.0,4.0,24.0,-1.0,0.0,639.0,0.3815591229196828,-1.0,763.0,1.0580959766819198,1
581,V1,d09172021,UmcnU,reward_learning,1.0,5.0,1.0,1.0,150.0,670.0,0.54641393560972,1.0,781.0,1.1759490931364687,1
582,V1,d09172021,UmcnU,reward_learning,1.0,6.0,26.0,-1.0,0.0,493.0,-0.39485386587855675,-1.0,688.0,0.5670413247879663,1
583,V1,d09172021,UmcnU,reward_learning,1.0,7.0,5.0,1.0,158.0,459.0,-0.5756623701192427,1.0,708.0,0.6979892319596872,1
584,V1,d09172021,UmcnU,reward_learning,1.0,8.0,41.0,1.0,143.0,860.0,1.5568144004841413,1.0,663.0,0.40335644082331507,1
585,V1,d09172021,UmcnU,reward_learning,1.0,9.0,26.0,-1.0,0.0,544.0,-0.12364110951752787,-1.0,866.0,1.7324776986162829,1
586,V1,d09172021,UmcnU,reward_learning,1.0,10.0,60.0,1.0,155.0,673.0,0.5623676271603687,1.0,837.0,1.5426032332172874,1
587,V1,d09172021,UmcnU,reward_learning,1.0,11.0,2.0,1.0,151.0,532.0,-0.1874558757201229,1.0,738.0,0.8944110927172687,1
588,V1,d09172021,UmcnU,reward_learning,1.0,12.0,34.0,1.0,157.0,565.0,-0.011965268662986568,1.0,752.0,0.9860746277374733,1
589,V1,d09172021,UmcnU,reward_learning,1.0,13.0,24.0,-1.0,0.0,435.0,-0.7032919025244327,-1.0,738.0,0.8944110927172687,1
590,V1,d09172021,UmcnU,reward_learning,1.0,14.0,2.0,1.0,151.0,570.0,0.014624217254761361,1.0,630.0,0.18729239398997552,1
591,V1,d09172021,UmcnU,reward_learning,1.0,15.0,66.0,-1.0,0.0,458.0,-0.5809802673027923,-1.0,729.0,0.8354845344899943,1
592,V1,d09172021,UmcnU,reward_learning,1.0,16.0,1.0,1.0,150.0,469.0,-0.5224833982837468,1.0,534.0,-0.4412575604342851,1
593,V1,d09172021,UmcnU,reward_learning,1.0,17.0,60.0,1.0,155.0,479.0,-0.46930442644825093,1.0,672.0,0.4622829990505895,1
594,V1,d09172021,UmcnU,reward_learning,1.0,18.0,14.0,-1.0,0.0,342.0,-1.1978563405945442,-1.0,716.0,0.7503683948283756,1
595,V1,d09172021,UmcnU,reward_learning,1.0,19.0,41.0,1.0,143.0,490.0,-0.4108075574292055,1.0,601.0,-0.0025820714090198814,1
596,V1,d09172021,UmcnU,reward_learning,1.0,20.0,14.0,-1.0,0.0,522.0,-0.24063484755561876,-1.0,684.0,0.5408517433536221,1
597,V1,d09172021,UmcnU,reward_learning,1.0,21.0,43.0,-1.0,0.0,1555.0,5.252752943051103,-1.0,884.0,1.8503308150708317,1
598,V1,d09172021,UmcnU,reward_learning,1.0,22.0,36.0,-1.0,0.0,646.0,0.41878440320452986,-1.0,668.0,0.4360934176162453,1
599,V1,d09172021,UmcnU,reward_learning,1.0,23.0,36.0,-1.0,0.0,535.0,-0.17150218416947413,-1.0,562.0,-0.2579304903938758,1
600,V1,d09172021,UmcnU,reward_learning,2.0,24.0,14.0,-1.0,0.0,895.0,1.7429408019083767,-1.0,530.0,-0.4674471418686293,1
601,V1,d09172021,UmcnU,reward_learning,2.0,25.0,36.0,-1.0,0.0,496.0,-0.378900174327908,-1.0,502.0,-0.6507742119090386,1
602,V1,d09172021,UmcnU,reward_learning,2.0,26.0,60.0,1.0,155.0,430.0,-0.7298813884421806,1.0,559.0,-0.2775726764696339,1
603,V1,d09172021,UmcnU,reward_learning,2.0,27.0,5.0,1.0,158.0,477.0,-0.47994022081535015,1.0,740.0,0.9075058834344408,1
604,V1,d09172021,UmcnU,reward_learning,2.0,28.0,43.0,-1.0,0.0,513.0,-0.28849592220756504,-1.0,550.0,-0.33649923469690834,1
605,V1,d09172021,UmcnU,reward_learning,2.0,29.0,24.0,-1.0,0.0,572.0,0.025260011621860534,-1.0,500.0,-0.6638690026262107,1
606,V1,d09172021,UmcnU,reward_learning,2.0,30.0,26.0,-1.0,0.0,692.0,0.6634076736478108,-1.0,793.0,1.2545178374395014,1
607,V1,d09172021,UmcnU,reward_learning,2.0,31.0,26.0,-1.0,0.0,500.0,-0.35762858559370964,-1.0,485.0,-0.7620799330050014,1
608,V1,d09172021,UmcnU,reward_learning,2.0,32.0,41.0,1.0,143.0,439.0,-0.6820203137902344,1.0,703.0,0.665252255166757,1
609,V1,d09172021,UmcnU,reward_learning,2.0,33.0,41.0,1.0,143.0,587.0,0.10502846937510432,1.0,394.0,-1.3578929106363318,1
610,V1,d09172021,UmcnU,reward_learning,2.0,34.0,43.0,-1.0,0.0,631.0,0.3390159454512861,-1.0,833.0,1.5164136517829432,1
611,V1,d09172021,UmcnU,reward_learning,2.0,35.0,2.0,1.0,151.0,666.0,0.5251423468755216,1.0,606.0,0.030154905383910358,1
612,V1,d09172021,UmcnU,reward_learning,2.0,36.0,1.0,1.0,150.0,694.0,0.67404346801491,1.0,577.0,-0.15971956001508503,1
613,V1,d09172021,UmcnU,reward_learning,2.0,37.0,66.0,-1.0,0.0,502.0,-0.3469927912266105,-1.0,539.0,-0.40852058364135485,1
614,V1,d09172021,UmcnU,reward_learning,2.0,38.0,60.0,1.0,155.0,453.0,-0.6075697532205402,1.0,493.0,-0.709700770136313,1
615,V1,d09172021,UmcnU,reward_learning,2.0,39.0,34.0,1.0,157.0,505.0,-0.33103909967596173,1.0,388.0,-1.3971772827878481,1
616,V1,d09172021,UmcnU,reward_learning,2.0,40.0,34.0,1.0,157.0,521.0,-0.24595274473916834,1.0,451.0,-0.9846913751969271,1
617,V1,d09172021,UmcnU,reward_learning,2.0,41.0,2.0,1.0,151.0,568.0,0.0039884228876621896,1.0,525.0,-0.5001841186615595,1
618,V1,d09172021,UmcnU,reward_learning,2.0,42.0,5.0,1.0,158.0,625.0,0.30710856234998857,1.0,379.0,-1.4561038410151226,1
619,V1,d09172021,UmcnU,reward_learning,2.0,43.0,1.0,1.0,150.0,483.0,-0.4480328377140526,1.0,456.0,-0.9519543984039969,1
620,V1,d09172021,UmcnU,reward_learning,2.0,44.0,14.0,-1.0,0.0,574.0,0.0358958059889597,-1.0,674.0,0.4753777897677616,1
621,V1,d09172021,UmcnU,reward_learning,2.0,45.0,24.0,-1.0,0.0,484.0,-0.44271494053050303,-1.0,368.0,-1.5281251899595691,1
622,V1,d09172021,UmcnU,reward_learning,2.0,46.0,36.0,-1.0,0.0,619.0,0.2752011792486911,-1.0,505.0,-0.6311320258332804,1
623,V1,d09172021,UmcnU,reward_learning,2.0,47.0,66.0,-1.0,0.0,589.0,0.1156642637422035,-1.0,605.0,0.02360751002532431,1
624,V1,d09172021,UmcnU,reward_learning,3.0,48.0,24.0,-1.0,0.0,841.0,1.4557743539966992,-1.0,486.0,-0.7555325376464154,1
625,V1,d09172021,UmcnU,reward_learning,3.0,49.0,2.0,1.0,151.0,708.0,0.7484940285846042,1.0,692.0,0.5932309062223105,1
626,V1,d09172021,UmcnU,reward_learning,3.0,50.0,14.0,-1.0,0.0,638.0,0.3762412257361332,-1.0,730.0,0.8420319298485803,1
627,V1,d09172021,UmcnU,reward_learning,3.0,51.0,34.0,1.0,157.0,515.0,-0.2778601278404659,1.0,610.0,0.05634448681825455,1
628,V1,d09172021,UmcnU,reward_learning,3.0,52.0,60.0,1.0,155.0,382.0,-0.9851404532525608,1.0,524.0,-0.5067315140201456,1
629,V1,d09172021,UmcnU,reward_learning,3.0,53.0,14.0,-1.0,0.0,301.0,-1.4158901251200773,1.0,335.0,-1.7441892367929086,0
630,V1,d09172021,UmcnU,reward_learning,3.0,54.0,5.0,1.0,158.0,465.0,-0.5437549870179451,1.0,504.0,-0.6376794211918665,1
631,V1,d09172021,UmcnU,reward_learning,3.0,55.0,1.0,1.0,150.0,765.0,1.0516141680469306,1.0,591.0,-0.06805602499488037,1
632,V1,d09172021,UmcnU,reward_learning,3.0,56.0,26.0,-1.0,0.0,412.0,-0.8256035377460732,-1.0,565.0,-0.2382883043181176,1
633,V1,d09172021,UmcnU,reward_learning,3.0,57.0,43.0,-1.0,0.0,712.0,0.7697656173188026,-1.0,558.0,-0.28412007182821997,1
634,V1,d09172021,UmcnU,reward_learning,3.0,58.0,43.0,-1.0,0.0,361.0,-1.096816294107102,-1.0,475.0,-0.8275538865908619,1
635,V1,d09172021,UmcnU,reward_learning,3.0,59.0,24.0,-1.0,0.0,405.0,-0.8628288180309203,-1.0,970.0,2.413406815909232,1
636,V1,d09172021,UmcnU,reward_learning,3.0,60.0,41.0,1.0,143.0,721.0,0.8176266919707488,1.0,501.0,-0.6573216072676247,1
637,V1,d09172021,UmcnU,reward_learning,3.0,61.0,26.0,-1.0,0.0,494.0,-0.3895359686950072,-1.0,515.0,-0.56565807224742,1
638,V1,d09172021,UmcnU,reward_learning,3.0,62.0,5.0,1.0,158.0,425.0,-0.7564708743599285,1.0,482.0,-0.7817221190807596,1
639,V1,d09172021,UmcnU,reward_learning,3.0,63.0,36.0,-1.0,0.0,335.0,-1.2350816208793913,-1.0,577.0,-0.15971956001508503,1
640,V1,d09172021,UmcnU,reward_learning,3.0,64.0,36.0,-1.0,0.0,323.0,-1.2988963870819863,-1.0,379.0,-1.4561038410151226,1
641,V1,d09172021,UmcnU,reward_learning,3.0,65.0,41.0,1.0,143.0,307.0,-1.3839827420187798,1.0,482.0,-0.7817221190807596,1
642,V1,d09172021,UmcnU,reward_learning,3.0,66.0,66.0,-1.0,0.0,551.0,-0.08641582923268076,-1.0,642.0,0.26586113829300806,1
643,V1,d09172021,UmcnU,reward_learning,3.0,67.0,1.0,1.0,150.0,395.0,-0.9160077898664162,1.0,541.0,-0.3954257929241828,1
644,V1,d09172021,UmcnU,reward_learning,3.0,68.0,2.0,1.0,151.0,411.0,-0.8309214349296228,1.0,533.0,-0.44780495579287116,1
645,V1,d09172021,UmcnU,reward_learning,3.0,69.0,66.0,-1.0,0.0,586.0,0.09971057219155473,-1.0,400.0,-1.3186085384848154,1
646,V1,d09172021,UmcnU,reward_learning,3.0,70.0,60.0,1.0,155.0,677.0,0.583639215894567,1.0,294.0,-2.0126324464949366,1
647,V1,d09172021,UmcnU,reward_learning,3.0,71.0,34.0,1.0,157.0,374.0,-1.0276836307209574,1.0,351.0,-1.6394309110555318,1
648,V1,d09142021,OvCTN,reward_learning,1.0,0.0,2.0,-1.0,0.0,1270.0,3.4462734246430036,-1.0,900.0,1.6044945274640625,1
649,V1,d09142021,OvCTN,reward_learning,1.0,1.0,54.0,-1.0,0.0,1057.0,2.6012625647906535,-1.0,1185.0,3.3064732841863997,1
650,V1,d09142021,OvCTN,reward_learning,1.0,2.0,13.0,-1.0,0.0,528.0,0.5026205701338772,-1.0,1325.0,4.142533024330706,1
651,V1,d09142021,OvCTN,reward_learning,1.0,3.0,27.0,-1.0,0.0,416.0,0.05829561096268828,,,,0
652,V1,d09142021,OvCTN,reward_learning,1.0,4.0,15.0,1.0,145.0,790.0,1.5420235996236227,1.0,751.0,0.7146880897390511,1
653,V1,d09142021,OvCTN,reward_learning,1.0,5.0,35.0,1.0,141.0,282.0,-0.4733074651885556,1.0,511.0,-0.7185571790797592,1
654,V1,d09142021,OvCTN,reward_learning,1.0,6.0,4.0,1.0,159.0,342.0,-0.23527623706113296,1.0,477.0,-0.9216002588290908,1
655,V1,d09142021,OvCTN,reward_learning,1.0,7.0,46.0,1.0,150.0,270.0,-0.5209137108140401,1.0,383.0,-1.4829546557831248,1
656,V1,d09142021,OvCTN,reward_learning,1.0,8.0,10.0,-1.0,0.0,348.0,-0.21147311424839071,-1.0,806.0,1.0431401305100285,1
657,V1,d09142021,OvCTN,reward_learning,1.0,9.0,46.0,1.0,150.0,476.0,0.2963268390901109,1.0,478.0,-0.9156284035423458,1
658,V1,d09142021,OvCTN,reward_learning,1.0,10.0,10.0,-1.0,0.0,306.0,-0.37809497393758656,-1.0,631.0,-0.001934544670354076,1
659,V1,d09142021,OvCTN,reward_learning,1.0,11.0,15.0,1.0,145.0,266.0,-0.5367824593558683,1.0,489.0,-0.8499379953881502,1
660,V1,d09142021,OvCTN,reward_learning,1.0,12.0,55.0,1.0,152.0,269.0,-0.5248808979494972,1.0,471.0,-0.9574313905495611,1
661,V1,d09142021,OvCTN,reward_learning,1.0,13.0,2.0,-1.0,0.0,257.0,-0.5724871435749816,-1.0,583.0,-0.28858359843411613,1
662,V1,d09142021,OvCTN,reward_learning,1.0,14.0,35.0,1.0,141.0,245.0,-0.6200933892004662,1.0,531.0,-0.5991200733448584,1
663,V1,d09142021,OvCTN,reward_learning,1.0,15.0,13.0,-1.0,0.0,326.0,-0.29875123122844566,-1.0,565.0,-0.39607699359552695,1
664,V1,d09142021,OvCTN,reward_learning,1.0,16.0,19.0,-1.0,0.0,234.0,-0.6637324476904937,-1.0,691.0,0.3563767725343485,1
665,V1,d09142021,OvCTN,reward_learning,1.0,17.0,55.0,1.0,152.0,283.0,-0.4693402780530986,1.0,559.0,-0.4319081253159972,1
666,V1,d09142021,OvCTN,reward_learning,1.0,18.0,19.0,-1.0,0.0,324.0,-0.30668560549935975,-1.0,555.0,-0.4557955464629774,1
667,V1,d09142021,OvCTN,reward_learning,1.0,19.0,54.0,-1.0,0.0,625.0,0.8874377222732105,-1.0,556.0,-0.44982369117623233,1
668,V1,d09142021,OvCTN,reward_learning,1.0,20.0,4.0,1.0,159.0,661.0,1.0302564591496641,-1.0,441.0,-1.1365870491519123,0
669,V1,d09142021,OvCTN,reward_learning,1.0,21.0,47.0,1.0,158.0,290.0,-0.44156996810489924,1.0,482.0,-0.8917409823953655,1
670,V1,d09142021,OvCTN,reward_learning,1.0,22.0,27.0,-1.0,0.0,686.0,1.1294361375360902,-1.0,653.0,0.12944627163803687,1
671,V1,d09142021,OvCTN,reward_learning,1.0,23.0,47.0,1.0,158.0,207.0,-0.7708465003478339,1.0,459.0,-1.0290936539905016,1
672,V1,d09142021,OvCTN,reward_learning,2.0,24.0,46.0,1.0,150.0,607.0,0.8160283538349836,1.0,563.0,-0.40802070416901703,1
673,V1,d09142021,OvCTN,reward_learning,2.0,25.0,10.0,-1.0,0.0,303.0,-0.3899965353439577,-1.0,671.0,0.23693966679944767,1
674,V1,d09142021,OvCTN,reward_learning,2.0,26.0,55.0,1.0,152.0,343.0,-0.2313090499256759,1.0,757.0,0.7505192214595214,1
675,V1,d09142021,OvCTN,reward_learning,2.0,27.0,27.0,-1.0,0.0,246.0,-0.6161262020650092,-1.0,595.0,-0.21692133499317565,1
676,V1,d09142021,OvCTN,reward_learning,2.0,28.0,35.0,1.0,141.0,255.0,-0.5804215178458958,1.0,637.0,0.03389658705011618,1
677,V1,d09142021,OvCTN,reward_learning,2.0,29.0,13.0,-1.0,0.0,286.0,-0.4574387166467274,-1.0,573.0,-0.3483021513015666,1
678,V1,d09142021,OvCTN,reward_learning,2.0,30.0,27.0,-1.0,0.0,230.0,-0.6796011962323218,-1.0,657.0,0.15333369278501705,1
679,V1,d09142021,OvCTN,reward_learning,2.0,31.0,35.0,1.0,141.0,273.0,-0.509012149407669,1.0,733.0,0.6071946945776403,1
680,V1,d09142021,OvCTN,reward_learning,2.0,32.0,2.0,-1.0,0.0,243.0,-0.6280277634713803,-1.0,784.0,0.9117593142016376,1
681,V1,d09142021,OvCTN,reward_learning,2.0,33.0,4.0,1.0,159.0,237.0,-0.6518308862841226,1.0,555.0,-0.4557955464629774,1
682,V1,d09142021,OvCTN,reward_learning,2.0,34.0,47.0,1.0,158.0,307.0,-0.3741277868021295,1.0,705.0,0.4399827465487791,1
683,V1,d09142021,OvCTN,reward_learning,2.0,35.0,4.0,1.0,159.0,311.0,-0.3582590382603013,1.0,701.0,0.41609532540179894,1
684,V1,d09142021,OvCTN,reward_learning,2.0,36.0,54.0,-1.0,0.0,279.0,-0.48520902659492676,-1.0,763.0,0.7863503531799917,1
685,V1,d09142021,OvCTN,reward_learning,2.0,37.0,55.0,1.0,152.0,417.0,0.06226279809814532,1.0,433.0,-1.1843618914458727,1
686,V1,d09142021,OvCTN,reward_learning,2.0,38.0,46.0,1.0,150.0,496.0,0.3756705817992518,1.0,621.0,-0.061653097537804506,1
687,V1,d09142021,OvCTN,reward_learning,2.0,39.0,47.0,1.0,158.0,484.0,0.3280643361737673,1.0,597.0,-0.20497762441968556,1
688,V1,d09142021,OvCTN,reward_learning,2.0,40.0,19.0,-1.0,0.0,471.0,0.2764909034128257,-1.0,777.0,0.8699563271944223,1
689,V1,d09142021,OvCTN,reward_learning,2.0,41.0,13.0,-1.0,0.0,1328.0,3.6763702784995123,-1.0,549.0,-0.49162667818344763,1
690,V1,d09142021,OvCTN,reward_learning,2.0,42.0,54.0,-1.0,0.0,382.0,-0.07658875164285121,-1.0,609.0,-0.13331536097874502,1
691,V1,d09142021,OvCTN,reward_learning,2.0,43.0,2.0,-1.0,0.0,341.0,-0.23924342419659,-1.0,843.0,1.2640987761195952,1
692,V1,d09142021,OvCTN,reward_learning,2.0,44.0,19.0,-1.0,0.0,421.0,0.0781315466399735,-1.0,645.0,0.08167142934407653,1
693,V1,d09142021,OvCTN,reward_learning,2.0,45.0,15.0,1.0,145.0,340.0,-0.24321061133204705,1.0,724.0,0.5534479969969349,1
694,V1,d09142021,OvCTN,reward_learning,2.0,46.0,15.0,1.0,145.0,296.0,-0.41776684529215696,1.0,465.0,-0.9932625222700313,1
695,V1,d09142021,OvCTN,reward_learning,2.0,47.0,10.0,-1.0,0.0,292.0,-0.43363559383398514,-1.0,547.0,-0.5035703887569377,1
696,V1,d09142021,OvCTN,reward_learning,3.0,48.0,27.0,-1.0,0.0,1434.0,4.096892114857958,-1.0,643.0,0.06972771877058645,1
697,V1,d09142021,OvCTN,reward_learning,3.0,49.0,47.0,1.0,158.0,271.0,-0.5169465236785831,1.0,541.0,-0.539401520477408,1
698,V1,d09142021,OvCTN,reward_learning,3.0,50.0,15.0,1.0,145.0,269.0,-0.5248808979494972,1.0,465.0,-0.9932625222700313,1
699,V1,d09142021,OvCTN,reward_learning,3.0,51.0,15.0,1.0,145.0,240.0,-0.6399293248777514,1.0,629.0,-0.013878255243844163,1
700,V1,d09142021,OvCTN,reward_learning,3.0,52.0,35.0,1.0,141.0,44.0,-1.4174980034273321,1.0,527.0,-0.6230074944918386,1
701,V1,d09142021,OvCTN,reward_learning,3.0,53.0,54.0,-1.0,0.0,238.0,-0.6478636991486655,-1.0,587.0,-0.26469617728713596,1
702,V1,d09142021,OvCTN,reward_learning,3.0,54.0,2.0,-1.0,0.0,257.0,-0.5724871435749816,-1.0,523.0,-0.6468949156388187,1
703,V1,d09142021,OvCTN,reward_learning,3.0,55.0,46.0,1.0,150.0,451.0,0.19714716070368482,1.0,405.0,-1.3515738394747339,1
704,V1,d09142021,OvCTN,reward_learning,3.0,56.0,19.0,-1.0,0.0,298.0,-0.40983247102124293,-1.0,556.0,-0.44982369117623233,1
705,V1,d09142021,OvCTN,reward_learning,3.0,57.0,2.0,-1.0,0.0,388.0,-0.05278562883010895,-1.0,453.0,-1.0649247857109718,1
706,V1,d09142021,OvCTN,reward_learning,3.0,58.0,19.0,-1.0,0.0,480.0,0.3121955876319391,-1.0,639.0,0.04584029762360627,1
707,V1,d09142021,OvCTN,reward_learning,3.0,59.0,27.0,-1.0,0.0,297.0,-0.41379965815669995,-1.0,651.0,0.11750256106454679,1
708,V1,d09142021,OvCTN,reward_learning,3.0,60.0,35.0,1.0,141.0,319.0,-0.326521541176645,1.0,511.0,-0.7185571790797592,1
709,V1,d09142021,OvCTN,reward_learning,3.0,61.0,55.0,1.0,152.0,462.0,0.2407862191937123,1.0,917.0,1.7060160673387283,1
710,V1,d09142021,OvCTN,reward_learning,3.0,62.0,55.0,1.0,152.0,355.0,-0.1837028043001914,1.0,705.0,0.4399827465487791,1
711,V1,d09142021,OvCTN,reward_learning,3.0,63.0,10.0,-1.0,0.0,244.0,-0.6240605763359233,-1.0,761.0,0.7744066426065016,1
712,V1,d09142021,OvCTN,reward_learning,3.0,64.0,47.0,1.0,158.0,418.0,0.06622998523360236,1.0,999.0,2.195708200851822,1
713,V1,d09142021,OvCTN,reward_learning,3.0,65.0,10.0,-1.0,0.0,283.0,-0.4693402780530986,-1.0,643.0,0.06972771877058645,1
714,V1,d09142021,OvCTN,reward_learning,3.0,66.0,46.0,1.0,150.0,437.0,0.1416065408072862,1.0,579.0,-0.31247101958109635,1
715,V1,d09142021,OvCTN,reward_learning,3.0,67.0,13.0,-1.0,0.0,328.0,-0.29081685695753157,-1.0,734.0,0.6131665498643853,1
716,V1,d09142021,OvCTN,reward_learning,3.0,68.0,4.0,1.0,159.0,569.0,0.665275242687616,1.0,580.0,-0.3064991642943513,1
717,V1,d09142021,OvCTN,reward_learning,3.0,69.0,13.0,-1.0,0.0,16.0,-1.5285792432201293,-1.0,782.0,0.8998156036281475,1
718,V1,d09142021,OvCTN,reward_learning,3.0,70.0,4.0,1.0,159.0,426.0,0.09796748231725871,1.0,369.0,-1.5665606297975554,1
719,V1,d09142021,OvCTN,reward_learning,3.0,71.0,54.0,-1.0,0.0,424.0,0.09003310804634462,-1.0,639.0,0.04584029762360627,1
720,V1,d09172021,bOPuu,reward_learning,1.0,0.0,17.0,-1.0,0.0,1493.0,4.833212543807423,-1.0,951.0,3.291896713235122,1
721,V1,d09172021,bOPuu,reward_learning,1.0,1.0,67.0,-1.0,0.0,810.0,1.5324034438119525,-1.0,705.0,1.5272918290023128,1
722,V1,d09172021,bOPuu,reward_learning,1.0,2.0,32.0,-1.0,0.0,831.0,1.6338924498147416,-1.0,635.0,1.0251684879604566,1
723,V1,d09172021,bOPuu,reward_learning,1.0,3.0,60.0,1.0,153.0,505.0,0.058396451866684046,1.0,715.0,1.5990237348654353,1
724,V1,d09172021,bOPuu,reward_learning,1.0,4.0,60.0,1.0,153.0,901.0,1.9721891364907047,1.0,437.0,-0.3951232481293653,1
725,V1,d09172021,bOPuu,reward_learning,1.0,5.0,69.0,1.0,150.0,676.0,0.8848069293179658,1.0,616.0,0.8888778668205242,1
726,V1,d09172021,bOPuu,reward_learning,1.0,6.0,32.0,-1.0,0.0,486.0,-0.0334269345167917,-1.0,627.0,0.9677829632699587,1
727,V1,d09172021,bOPuu,reward_learning,1.0,7.0,13.0,-1.0,0.0,550.0,0.2758728933012319,-1.0,616.0,0.8888778668205242,1
728,V1,d09172021,bOPuu,reward_learning,1.0,8.0,68.0,-1.0,0.0,463.0,-0.14458156013889392,-1.0,642.0,1.0753808220646421,1
729,V1,d09172021,bOPuu,reward_learning,1.0,9.0,51.0,-1.0,0.0,554.0,0.29520413253985833,-1.0,610.0,0.8458387233026508,1
730,V1,d09172021,bOPuu,reward_learning,1.0,10.0,17.0,-1.0,0.0,437.0,-0.270234615189966,-1.0,819.0,2.3450355558419074,1
731,V1,d09172021,bOPuu,reward_learning,1.0,11.0,36.0,1.0,149.0,512.0,0.09222612053428036,1.0,539.0,0.33654219167448235,1
732,V1,d09172021,bOPuu,reward_learning,1.0,12.0,57.0,1.0,159.0,724.0,1.1167818001814833,1.0,479.0,-0.09384924350425157,1
733,V1,d09172021,bOPuu,reward_learning,1.0,13.0,57.0,1.0,159.0,311.0,-0.8791686512066998,1.0,546.0,0.386754525778668,1
734,V1,d09172021,bOPuu,reward_learning,1.0,14.0,13.0,-1.0,0.0,547.0,0.261374463872262,-1.0,487.0,-0.03646371881375371,1
735,V1,d09172021,bOPuu,reward_learning,1.0,15.0,7.0,1.0,156.0,483.0,-0.04792536394576155,1.0,575.0,0.5947770527817227,1
736,V1,d09172021,bOPuu,reward_learning,1.0,16.0,68.0,-1.0,0.0,524.0,0.15021983825015978,-1.0,605.0,0.8099727703710896,1
737,V1,d09172021,bOPuu,reward_learning,1.0,17.0,63.0,1.0,151.0,524.0,0.15021983825015978,1.0,587.0,0.6808553398174695,1
738,V1,d09172021,bOPuu,reward_learning,1.0,18.0,67.0,-1.0,0.0,308.0,-0.8936670806356697,-1.0,625.0,0.9534365820973343,1
739,V1,d09172021,bOPuu,reward_learning,1.0,19.0,69.0,1.0,150.0,310.0,-0.8840014610163565,1.0,572.0,0.573257481022786,1
740,V1,d09172021,bOPuu,reward_learning,1.0,20.0,7.0,1.0,156.0,486.0,-0.0334269345167917,1.0,633.0,1.0108221067878322,1
741,V1,d09172021,bOPuu,reward_learning,1.0,21.0,51.0,-1.0,0.0,486.0,-0.0334269345167917,-1.0,560.0,0.48717919398703924,1
742,V1,d09172021,bOPuu,reward_learning,1.0,22.0,36.0,1.0,149.0,541.0,0.2323776050143223,1.0,485.0,-0.05081009998637817,1
743,V1,d09172021,bOPuu,reward_learning,1.0,23.0,63.0,1.0,151.0,585.0,0.4450212366392135,1.0,444.0,-0.3449109140251797,1
744,V1,d09172021,bOPuu,reward_learning,2.0,24.0,69.0,1.0,150.0,597.0,0.5030149543550929,1.0,565.0,0.5230451469186004,1
745,V1,d09172021,bOPuu,reward_learning,2.0,25.0,67.0,-1.0,0.0,308.0,-0.8936670806356697,-1.0,564.0,0.5158719563322881,1
746,V1,d09172021,bOPuu,reward_learning,2.0,26.0,17.0,-1.0,0.0,515.0,0.10672454996325022,-1.0,495.0,0.020921805876744144,1
747,V1,d09172021,bOPuu,reward_learning,2.0,27.0,13.0,-1.0,0.0,370.0,-0.5940328724369593,-1.0,524.0,0.22894433287979887,1
748,V1,d09172021,bOPuu,reward_learning,2.0,28.0,13.0,-1.0,0.0,427.0,-0.3185627132865322,-1.0,389.0,-0.7394363962723525,1
749,V1,d09172021,bOPuu,reward_learning,2.0,29.0,51.0,-1.0,0.0,322.0,-0.8260077433004771,-1.0,556.0,0.45848643164179026,1
750,V1,d09172021,bOPuu,reward_learning,2.0,30.0,51.0,-1.0,0.0,442.0,-0.2460705661416829,-1.0,378.0,-0.818341492721787,1
751,V1,d09172021,bOPuu,reward_learning,2.0,31.0,36.0,1.0,149.0,297.0,-0.9468279885418925,1.0,567.0,0.5373915280912248,1
752,V1,d09172021,bOPuu,reward_learning,2.0,32.0,69.0,1.0,150.0,461.0,-0.15424717975820715,1.0,413.0,-0.5672798222008588,1
753,V1,d09172021,bOPuu,reward_learning,2.0,33.0,32.0,-1.0,0.0,2.0,-2.372506882390595,-1.0,681.0,1.3551352549308193,1
754,V1,d09172021,bOPuu,reward_learning,2.0,34.0,57.0,1.0,159.0,418.0,-0.36205800157344176,1.0,356.0,-0.9761516856206561,1
755,V1,d09172021,bOPuu,reward_learning,2.0,35.0,17.0,-1.0,0.0,281.0,-1.0241529454963985,-1.0,520.0,0.20025157053454995,1
756,V1,d09172021,bOPuu,reward_learning,2.0,36.0,60.0,1.0,153.0,178.0,-1.52193235589103,1.0,653.0,1.1542859185140768,1
757,V1,d09172021,bOPuu,reward_learning,2.0,37.0,7.0,1.0,156.0,1090.0,2.8855901905158055,1.0,683.0,1.3694816361034436,1
758,V1,d09172021,bOPuu,reward_learning,2.0,38.0,57.0,1.0,159.0,320.0,-0.8356733629197903,1.0,401.0,-0.6533581092366056,1
759,V1,d09172021,bOPuu,reward_learning,2.0,39.0,36.0,1.0,149.0,621.0,0.6190023897868517,1.0,204.0,-2.066476654740115,1
760,V1,d09172021,bOPuu,reward_learning,2.0,40.0,7.0,1.0,156.0,441.0,-0.2509033759513395,1.0,314.0,-1.27742569024577,1
761,V1,d09172021,bOPuu,reward_learning,2.0,41.0,68.0,-1.0,0.0,279.0,-1.0338185651157117,-1.0,577.0,0.6091234339543472,1
762,V1,d09172021,bOPuu,reward_learning,2.0,42.0,67.0,-1.0,0.0,591.0,0.4740180954971532,-1.0,280.0,-1.5213141701803856,1
763,V1,d09172021,bOPuu,reward_learning,2.0,43.0,68.0,-1.0,0.0,518.0,0.12122297939222008,-1.0,396.0,-0.6892240621681668,1
764,V1,d09172021,bOPuu,reward_learning,2.0,44.0,60.0,1.0,153.0,349.0,-0.6955218784397483,1.0,309.0,-1.313291643177331,1
765,V1,d09172021,bOPuu,reward_learning,2.0,45.0,63.0,1.0,151.0,300.0,-0.9323295591129227,1.0,429.0,-0.4525087728198632,1
766,V1,d09172021,bOPuu,reward_learning,2.0,46.0,63.0,1.0,151.0,487.0,-0.02859412470713508,1.0,355.0,-0.9833248762069683,1
767,V1,d09172021,bOPuu,reward_learning,2.0,47.0,32.0,-1.0,0.0,507.0,0.06806207148599729,-1.0,530.0,0.2719834763976723,1
768,V1,d09172021,bOPuu,reward_learning,3.0,48.0,69.0,1.0,150.0,453.0,-0.1929096582354601,1.0,453.0,-0.2803521987483696,1
769,V1,d09172021,bOPuu,reward_learning,3.0,49.0,13.0,-1.0,0.0,487.0,-0.02859412470713508,-1.0,434.0,-0.416642819888302,1
770,V1,d09172021,bOPuu,reward_learning,3.0,50.0,60.0,1.0,153.0,527.0,0.16471826767912964,1.0,326.0,-1.191347403210023,1
771,V1,d09172021,bOPuu,reward_learning,3.0,51.0,36.0,1.0,149.0,398.0,-0.45871419776657407,1.0,421.0,-0.509894297510361,1
772,V1,d09172021,bOPuu,reward_learning,3.0,52.0,68.0,-1.0,0.0,711.0,1.0539552726559474,-1.0,402.0,-0.6461849186502934,1
773,V1,d09172021,bOPuu,reward_learning,3.0,53.0,17.0,-1.0,0.0,413.0,-0.3862220506217248,-1.0,452.0,-0.2875253893346818,1
774,V1,d09172021,bOPuu,reward_learning,3.0,54.0,32.0,-1.0,0.0,278.0,-1.0386513749253683,-1.0,459.0,-0.2373130552304962,1
775,V1,d09172021,bOPuu,reward_learning,3.0,55.0,13.0,-1.0,0.0,406.0,-0.42005171928932117,-1.0,377.0,-0.8255146833080992,1
776,V1,d09172021,bOPuu,reward_learning,3.0,56.0,17.0,-1.0,0.0,696.0,0.981463125511098,-1.0,237.0,-1.8297613653918117,1
777,V1,d09172021,bOPuu,reward_learning,3.0,57.0,67.0,-1.0,0.0,529.0,0.17438388729844287,-1.0,331.0,-1.1554814502784618,1
778,V1,d09172021,bOPuu,reward_learning,3.0,58.0,7.0,1.0,156.0,275.0,-1.0531498043543381,1.0,484.0,-0.0579832905726904,1
779,V1,d09172021,bOPuu,reward_learning,3.0,59.0,63.0,1.0,151.0,278.0,-1.0386513749253683,1.0,453.0,-0.2803521987483696,1
780,V1,d09172021,bOPuu,reward_learning,3.0,60.0,67.0,-1.0,0.0,422.0,-0.34272676233481525,-1.0,320.0,-1.2343865467278965,1
781,V1,d09172021,bOPuu,reward_learning,3.0,61.0,32.0,-1.0,0.0,437.0,-0.270234615189966,-1.0,386.0,-0.7609559680312892,1
782,V1,d09172021,bOPuu,reward_learning,3.0,62.0,57.0,1.0,159.0,502.0,0.043898022437714186,1.0,488.0,-0.02929052822744148,1
783,V1,d09172021,bOPuu,reward_learning,3.0,63.0,51.0,-1.0,0.0,469.0,-0.1155847012809542,-1.0,635.0,1.0251684879604566,1
784,V1,d09172021,bOPuu,reward_learning,3.0,64.0,60.0,1.0,153.0,327.0,-0.8018436942521939,1.0,446.0,-0.3305645328525552,1
785,V1,d09172021,bOPuu,reward_learning,3.0,65.0,63.0,1.0,151.0,500.0,0.03423240281840095,1.0,264.0,-1.6360852195613813,1
786,V1,d09172021,bOPuu,reward_learning,3.0,66.0,51.0,-1.0,0.0,325.0,-0.8115093138715073,-1.0,563.0,0.508698765745976,1
787,V1,d09172021,bOPuu,reward_learning,3.0,67.0,69.0,1.0,150.0,586.0,0.4498540464488701,1.0,386.0,-0.7609559680312892,1
788,V1,d09172021,bOPuu,reward_learning,3.0,68.0,57.0,1.0,159.0,520.0,0.13088859901153332,1.0,286.0,-1.4782750266625122,1
789,V1,d09172021,bOPuu,reward_learning,3.0,69.0,68.0,-1.0,0.0,467.0,-0.12525032090026744,-1.0,451.0,-0.2946985799209941,1
790,V1,d09172021,bOPuu,reward_learning,3.0,70.0,36.0,1.0,149.0,735.0,1.1699427080877063,1.0,366.0,-0.9044197797575337,1
791,V1,d09172021,bOPuu,reward_learning,3.0,71.0,7.0,1.0,156.0,581.0,0.425689997400587,1.0,361.0,-0.9402857326890949,1
792,V1,d09142021,skpJF,reward_learning,1.0,0.0,17.0,1.0,150.0,876.0,1.4328146269813518,1.0,1519.0,3.7700405819517075,1
793,V1,d09142021,skpJF,reward_learning,1.0,1.0,60.0,-1.0,0.0,860.0,1.3244789450252925,-1.0,1486.0,3.607835446091986,1
794,V1,d09142021,skpJF,reward_learning,1.0,2.0,60.0,-1.0,0.0,1016.0,2.3807518440968694,-1.0,918.0,0.8159409864458715,1
795,V1,d09142021,skpJF,reward_learning,1.0,3.0,49.0,1.0,140.0,891.0,1.534379328815157,1.0,990.0,1.1698431010489,1
796,V1,d09142021,skpJF,reward_learning,1.0,4.0,11.0,-1.0,0.0,971.0,2.076057738595453,-1.0,782.0,0.14745921441792859,1
797,V1,d09142021,skpJF,reward_learning,1.0,5.0,62.0,1.0,144.0,691.0,0.18018330436441765,1.0,735.0,-0.08356022150349286,1
798,V1,d09142021,skpJF,reward_learning,1.0,6.0,61.0,-1.0,0.0,818.0,1.0400977798906372,-1.0,655.0,-0.47678479328463574,1
799,V1,d09142021,skpJF,reward_learning,1.0,7.0,21.0,-1.0,0.0,778.0,0.7692585750004893,-1.0,695.0,-0.2801725073940643,1
800,V1,d09142021,skpJF,reward_learning,1.0,8.0,51.0,1.0,143.0,842.0,1.202601302824726,1.0,982.0,1.1305206438707858,1
801,V1,d09142021,skpJF,reward_learning,1.0,9.0,21.0,-1.0,0.0,761.0,0.6541519129221764,-1.0,702.0,-0.2457653573632143,1
802,V1,d09142021,skpJF,reward_learning,1.0,10.0,33.0,1.0,154.0,856.0,1.2973950245362778,1.0,758.0,0.02949184288358572,1
803,V1,d09142021,skpJF,reward_learning,1.0,11.0,68.0,1.0,146.0,761.0,0.6541519129221764,1.0,1126.0,1.8383248730768431,1
804,V1,d09142021,skpJF,reward_learning,1.0,12.0,51.0,1.0,143.0,768.0,0.7015487737779523,1.0,670.0,-0.4030551860756715,1
805,V1,d09142021,skpJF,reward_learning,1.0,13.0,11.0,-1.0,0.0,731.0,0.45102250925456555,-1.0,847.0,0.4669541789901072,1
806,V1,d09142021,skpJF,reward_learning,1.0,14.0,33.0,1.0,154.0,802.0,0.9317620979345781,1.0,703.0,-0.24085005021595002,1
807,V1,d09142021,skpJF,reward_learning,1.0,15.0,68.0,1.0,146.0,594.0,-0.476601767494191,1.0,591.0,-0.7913644507095501,1
808,V1,d09142021,skpJF,reward_learning,1.0,16.0,17.0,1.0,150.0,682.0,0.11924448326413438,1.0,902.0,0.737296072089643,1
809,V1,d09142021,skpJF,reward_learning,1.0,17.0,63.0,-1.0,0.0,633.0,-0.21253354272629676,-1.0,1014.0,1.287810472583243,1
810,V1,d09142021,skpJF,reward_learning,1.0,18.0,2.0,-1.0,0.0,785.0,0.8166554358562652,-1.0,622.0,-0.6389899291443573,1
811,V1,d09142021,skpJF,reward_learning,1.0,19.0,61.0,-1.0,0.0,530.0,-0.9099444953184276,-1.0,630.0,-0.5996674719662429,1
812,V1,d09142021,skpJF,reward_learning,1.0,20.0,49.0,1.0,140.0,618.0,-0.3140982445601022,1.0,560.0,-0.943738972274743,1
813,V1,d09142021,skpJF,reward_learning,1.0,21.0,2.0,-1.0,0.0,707.0,0.2885189863204768,-1.0,655.0,-0.47678479328463574,1
814,V1,d09142021,skpJF,reward_learning,1.0,22.0,63.0,-1.0,0.0,650.0,-0.09742688064798392,-1.0,655.0,-0.47678479328463574,1
815,V1,d09142021,skpJF,reward_learning,1.0,23.0,62.0,1.0,144.0,667.0,0.017679781430328927,1.0,567.0,-0.909331822243893,1
816,V1,d09142021,skpJF,reward_learning,2.0,24.0,17.0,1.0,150.0,1422.0,5.12976977373187,1.0,934.0,0.8945859008021001,1
817,V1,d09142021,skpJF,reward_learning,2.0,25.0,68.0,1.0,146.0,649.0,-0.10419786077023763,1.0,608.0,-0.7078042292060572,1
818,V1,d09142021,skpJF,reward_learning,2.0,26.0,61.0,-1.0,0.0,643.0,-0.14482374150375982,-1.0,911.0,0.7815338364150215,1
819,V1,d09142021,skpJF,reward_learning,2.0,27.0,11.0,-1.0,0.0,539.0,-0.8490056742181443,-1.0,551.0,-0.9879767366001215,1
820,V1,d09142021,skpJF,reward_learning,2.0,28.0,49.0,1.0,140.0,708.0,0.29528996644273053,1.0,799.0,0.23101943592142146,1
821,V1,d09142021,skpJF,reward_learning,2.0,29.0,2.0,-1.0,0.0,666.0,0.01090880130807523,-1.0,870.0,0.5800062433771858,1
822,V1,d09142021,skpJF,reward_learning,2.0,30.0,60.0,-1.0,0.0,579.0,-0.5781664693279964,-1.0,734.0,-0.08847552865075715,1
823,V1,d09142021,skpJF,reward_learning,2.0,31.0,62.0,1.0,144.0,650.0,-0.09742688064798392,1.0,1206.0,2.231549444857986,1
824,V1,d09142021,skpJF,reward_learning,2.0,32.0,63.0,-1.0,0.0,577.0,-0.5917084295725038,-1.0,838.0,0.42271641466472865,1
825,V1,d09142021,skpJF,reward_learning,2.0,33.0,68.0,1.0,146.0,563.0,-0.6865021512840556,1.0,535.0,-1.0666216509563502,1
826,V1,d09142021,skpJF,reward_learning,2.0,34.0,62.0,1.0,144.0,618.0,-0.3140982445601022,1.0,647.0,-0.5161072504627501,1
827,V1,d09142021,skpJF,reward_learning,2.0,35.0,33.0,1.0,154.0,611.0,-0.3614951054158781,1.0,615.0,-0.6733970791752072,1
828,V1,d09142021,skpJF,reward_learning,2.0,36.0,17.0,1.0,150.0,690.0,0.17341232424216396,1.0,631.0,-0.5947521648189786,1
829,V1,d09142021,skpJF,reward_learning,2.0,37.0,63.0,-1.0,0.0,617.0,-0.32086922468235596,-1.0,839.0,0.4276317218119929,1
830,V1,d09142021,skpJF,reward_learning,2.0,38.0,33.0,1.0,154.0,594.0,-0.476601767494191,1.0,679.0,-0.3588174217502929,1
