,Exp,group,PID,phase,condition,block,trial,stimulus_left,stimulus_right,painting_left,painting_right,rating_left,rating_right,explain_trial,explain_response,novel_left,left_chosen,chosen_obj,unchosen_obj,rt,zscored_rt,delta_ratings,zcored_rating_left,zcored_rating_right,zscored_delta_ratings
0,Exp1,d11032021,ZGrrY,interference,0.0,1.0,0.0,15.0,3.0,Clia1n.jpg,Fogeg1.jpg,34.0,65.0,0.0,,,0.0,3.0,15.0,1.421,0.4052918764888905,-31.0,-0.4236780463064331,1.038364933526527,-1.4620429798329602
1,Exp1,d11032021,ZGrrY,interference,1.0,1.0,1.0,18.0,55.0,Krasb1.jpg,Lewic1.jpg,64.0,59.0,1.0,,0.0,1.0,18.0,55.0,1.743,0.9171976739075623,5.0,0.991202256757722,0.755388872913696,0.2358133838440258
2,Exp1,d11032021,ZGrrY,interference,0.0,1.0,2.0,57.0,33.0,Lewc1n.jpg,Kupc1n.jpg,59.0,57.0,0.0,,,1.0,57.0,33.0,1.867,1.1143290990004668,2.0,0.755388872913696,0.6610635193760858,0.0943253535376102
3,Exp1,d11032021,ZGrrY,interference,1.0,1.0,3.0,27.0,37.0,Vinb1n.jpg,Mondb1.jpg,58.0,58.0,1.0,,0.0,0.0,37.0,27.0,2.935,2.812202986090968,0.0,0.7082261961448909,0.7082261961448909,0.0
4,Exp1,d11032021,ZGrrY,interference,1.0,1.0,4.0,4.0,1.0,Mackb1.jpg,Lewia1.jpg,41.0,65.0,1.0,,1.0,0.0,1.0,4.0,1.714,0.8710943567487377,-24.0,-0.0935393089247969,1.038364933526527,-1.131904242451324
5,Exp1,d11032021,ZGrrY,interference,1.0,1.0,5.0,17.0,40.0,Picab1.jpg,Krab1n.jpg,65.0,38.0,1.0,,0.0,1.0,17.0,40.0,1.4,0.3719067157876726,27.0,1.038364933526527,-0.2350273392312124,1.2733922727577396
6,Exp1,d11032021,ZGrrY,interference,1.0,1.0,6.0,26.0,48.0,Clib1n.jpg,Picb1n.jpg,64.0,66.0,1.0,,1.0,0.0,48.0,26.0,1.469,0.4816008152345311,-2.0,0.991202256757722,1.0855276102953322,-0.0943253535376102
7,Exp1,d11032021,ZGrrY,interference,0.0,1.0,7.0,23.0,47.0,Lewib1.jpg,Kupkd1.jpg,35.0,31.0,0.0,,,1.0,23.0,47.0,1.076,-0.1431786207454005,4.0,-0.376515369537628,-0.5651660766128487,0.1886507070752207
8,Exp1,d11032021,ZGrrY,interference,0.0,1.0,8.0,35.0,21.0,Wdeka1.jpg,Lewb1n.jpg,65.0,38.0,0.0,,,1.0,35.0,21.0,1.354,0.2987773161564341,27.0,1.038364933526527,-0.2350273392312124,1.2733922727577396
9,Exp1,d11032021,ZGrrY,interference,1.0,1.0,9.0,59.0,31.0,Kraa1n.jpg,Maca1n.jpg,38.0,39.0,1.0,,1.0,0.0,31.0,59.0,2.053,1.4100262366398235,-1.0,-0.2350273392312124,-0.1878646624624073,-0.0471626767688051
10,Exp1,d11032021,ZGrrY,interference,1.0,1.0,10.0,34.0,32.0,Monb1n.jpg,Macka1.jpg,35.0,40.0,1.0,,1.0,0.0,32.0,34.0,1.186,0.031696030546692,-5.0,-0.376515369537628,-0.1407019856936021,-0.2358133838440258
11,Exp1,d11032021,ZGrrY,interference,1.0,1.0,11.0,58.0,49.0,Mackc1.jpg,Hinda1.jpg,28.0,45.0,1.0,,0.0,1.0,58.0,49.0,1.6,0.6898606272278417,-17.0,-0.7066541069192641,0.0951113981504237,-0.8017655050696878
12,Exp1,d11032021,ZGrrY,interference,0.0,1.0,12.0,39.0,45.0,Dekb1n.jpg,Klia1n.jpg,36.0,42.0,0.0,,,1.0,39.0,45.0,3.424,3.5896002995621807,-6.0,-0.3293526927688228,-0.0463766321559918,-0.282976060612831
13,Exp1,d11032021,ZGrrY,interference,0.0,1.0,13.0,56.0,2.0,Luisc1.jpg,Dekob1.jpg,36.0,36.0,0.0,,,1.0,56.0,2.0,0.887,-0.4436450670563601,0.0,-0.3293526927688228,-0.3293526927688228,0.0
14,Exp1,d11032021,ZGrrY,interference,0.0,1.0,14.0,51.0,5.0,Gora1n.jpg,Kupb1n.jpg,25.0,62.0,0.0,,,0.0,5.0,51.0,0.932,-0.372105436982322,-37.0,-0.8481421372256797,0.8968769032201116,-1.7450190404457913
15,Exp1,d11032021,ZGrrY,interference,0.0,1.0,15.0,11.0,12.0,Wdekb1.jpg,Kupkc1.jpg,22.0,17.0,0.0,,,0.0,12.0,11.0,1.093,-0.1161525382729863,5.0,-0.9896301675320952,-1.225443551376121,0.2358133838440258
16,Exp1,d11032021,ZGrrY,interference,1.0,2.0,16.0,18.0,55.0,Krasb1.jpg,Lewic1.jpg,64.0,59.0,0.0,,0.0,1.0,18.0,55.0,1.084,-0.1304604642877938,5.0,0.991202256757722,0.755388872913696,0.2358133838440258
17,Exp1,d11032021,ZGrrY,interference,0.0,2.0,17.0,39.0,45.0,Dekb1n.jpg,Klia1n.jpg,36.0,42.0,1.0,,,1.0,39.0,45.0,0.871,-0.4690813799715737,-6.0,-0.3293526927688228,-0.0463766321559918,-0.282976060612831
18,Exp1,d11032021,ZGrrY,interference,0.0,2.0,18.0,11.0,12.0,Wdekb1.jpg,Kupkc1.jpg,22.0,17.0,1.0,,,0.0,12.0,11.0,0.855,-0.4945176928867871,5.0,-0.9896301675320952,-1.225443551376121,0.2358133838440258
19,Exp1,d11032021,ZGrrY,interference,1.0,2.0,19.0,26.0,48.0,Clib1n.jpg,Picb1n.jpg,64.0,66.0,0.0,,1.0,0.0,48.0,26.0,0.763,-0.6407764921492648,-2.0,0.991202256757722,1.0855276102953322,-0.0943253535376102
20,Exp1,d11032021,ZGrrY,interference,1.0,2.0,20.0,27.0,37.0,Vinb1n.jpg,Mondb1.jpg,58.0,58.0,0.0,,0.0,0.0,37.0,27.0,0.875,-0.4627223017427703,0.0,0.7082261961448909,0.7082261961448909,0.0
21,Exp1,d11032021,ZGrrY,interference,0.0,2.0,21.0,51.0,5.0,Gora1n.jpg,Kupb1n.jpg,25.0,62.0,1.0,,,0.0,5.0,51.0,0.741,-0.6757514224076834,-37.0,-0.8481421372256797,0.8968769032201116,-1.7450190404457913
22,Exp1,d11032021,ZGrrY,interference,0.0,2.0,22.0,57.0,33.0,Lewc1n.jpg,Kupc1n.jpg,59.0,57.0,1.0,,,1.0,57.0,33.0,1.111,-0.0875366862433711,2.0,0.755388872913696,0.6610635193760858,0.0943253535376102
23,Exp1,d11032021,ZGrrY,interference,1.0,2.0,23.0,59.0,31.0,Kraa1n.jpg,Maca1n.jpg,38.0,39.0,0.0,,1.0,0.0,31.0,59.0,2.396,1.9553171947597128,-1.0,-0.2350273392312124,-0.1878646624624073,-0.0471626767688051
24,Exp1,d11032021,ZGrrY,interference,1.0,2.0,24.0,4.0,1.0,Mackb1.jpg,Lewia1.jpg,41.0,65.0,0.0,,1.0,0.0,1.0,4.0,1.365,0.3162647812856432,-24.0,-0.0935393089247969,1.038364933526527,-1.131904242451324
25,Exp1,d11032021,ZGrrY,interference,0.0,2.0,25.0,23.0,47.0,Lewib1.jpg,Kupkd1.jpg,35.0,31.0,1.0,,,1.0,23.0,47.0,0.756,-0.6519048790496706,4.0,-0.376515369537628,-0.5651660766128487,0.1886507070752207
26,Exp1,d11032021,ZGrrY,interference,0.0,2.0,26.0,35.0,21.0,Wdeka1.jpg,Lewb1n.jpg,65.0,38.0,1.0,,,1.0,35.0,21.0,1.661,0.7868365702170931,27.0,1.038364933526527,-0.2350273392312124,1.2733922727577396
27,Exp1,d11032021,ZGrrY,interference,1.0,2.0,27.0,34.0,32.0,Monb1n.jpg,Macka1.jpg,35.0,40.0,0.0,,1.0,0.0,32.0,34.0,0.839,-0.5199540058020007,-5.0,-0.376515369537628,-0.1407019856936021,-0.2358133838440258
28,Exp1,d11032021,ZGrrY,interference,1.0,2.0,28.0,58.0,49.0,Mackc1.jpg,Hinda1.jpg,28.0,45.0,0.0,,0.0,1.0,58.0,49.0,0.622,-0.8649339997145837,-17.0,-0.7066541069192641,0.0951113981504237,-0.8017655050696878
29,Exp1,d11032021,ZGrrY,interference,0.0,2.0,29.0,15.0,3.0,Clia1n.jpg,Fogeg1.jpg,34.0,65.0,1.0,,,0.0,3.0,15.0,0.942,-0.3562077414103138,-31.0,-0.4236780463064331,1.038364933526527,-1.4620429798329602
30,Exp1,d11032021,ZGrrY,interference,0.0,2.0,30.0,56.0,2.0,Luisc1.jpg,Dekob1.jpg,36.0,36.0,1.0,,,1.0,56.0,2.0,0.866,-0.4770302277575778,0.0,-0.3293526927688228,-0.3293526927688228,0.0
31,Exp1,d11032021,ZGrrY,interference,1.0,2.0,31.0,17.0,40.0,Picab1.jpg,Krab1n.jpg,65.0,38.0,0.0,,0.0,1.0,17.0,40.0,2.335,1.8583412517704616,27.0,1.038364933526527,-0.2350273392312124,1.2733922727577396
32,Exp1,d11032021,ZGrrY,interference,0.0,3.0,32.0,56.0,2.0,Luisc1.jpg,Dekob1.jpg,36.0,36.0,0.0,,,1.0,56.0,2.0,1.127,-0.0621003733281576,0.0,-0.3293526927688228,-0.3293526927688228,0.0
33,Exp1,d11032021,ZGrrY,interference,1.0,3.0,33.0,27.0,37.0,Vinb1n.jpg,Mondb1.jpg,58.0,58.0,0.0,,0.0,0.0,37.0,27.0,0.744,-0.6709821137360809,0.0,0.7082261961448909,0.7082261961448909,0.0
34,Exp1,d11032021,ZGrrY,interference,1.0,3.0,34.0,59.0,31.0,Kraa1n.jpg,Maca1n.jpg,38.0,39.0,0.0,,1.0,0.0,31.0,59.0,0.817,-0.5549289360604193,-1.0,-0.2350273392312124,-0.1878646624624073,-0.0471626767688051
35,Exp1,d11032021,ZGrrY,interference,1.0,3.0,35.0,34.0,32.0,Monb1n.jpg,Macka1.jpg,35.0,40.0,0.0,,1.0,0.0,32.0,34.0,0.733,-0.6884695788652901,-5.0,-0.376515369537628,-0.1407019856936021,-0.2358133838440258
36,Exp1,d11032021,ZGrrY,interference,0.0,3.0,36.0,35.0,21.0,Wdeka1.jpg,Lewb1n.jpg,65.0,38.0,0.0,,,1.0,35.0,21.0,0.973,-0.3069248851370876,27.0,1.038364933526527,-0.2350273392312124,1.2733922727577396
37,Exp1,d11032021,ZGrrY,interference,0.0,3.0,37.0,23.0,47.0,Lewib1.jpg,Kupkd1.jpg,35.0,31.0,0.0,,,1.0,23.0,47.0,0.628,-0.8553953823713787,4.0,-0.376515369537628,-0.5651660766128487,0.1886507070752207
38,Exp1,d11032021,ZGrrY,interference,1.0,3.0,38.0,17.0,40.0,Picab1.jpg,Krab1n.jpg,65.0,38.0,0.0,,0.0,1.0,17.0,40.0,0.631,-0.8506260736997762,27.0,1.038364933526527,-0.2350273392312124,1.2733922727577396
39,Exp1,d11032021,ZGrrY,interference,1.0,3.0,39.0,4.0,1.0,Mackb1.jpg,Lewia1.jpg,41.0,65.0,0.0,,1.0,0.0,1.0,4.0,0.589,-0.9173963951022116,-24.0,-0.0935393089247969,1.038364933526527,-1.131904242451324
40,Exp1,d11032021,ZGrrY,interference,0.0,3.0,40.0,15.0,3.0,Clia1n.jpg,Fogeg1.jpg,34.0,65.0,0.0,,,0.0,3.0,15.0,0.937,-0.3641565891963179,-31.0,-0.4236780463064331,1.038364933526527,-1.4620429798329602
41,Exp1,d11032021,ZGrrY,interference,1.0,3.0,41.0,26.0,48.0,Clib1n.jpg,Picb1n.jpg,64.0,66.0,0.0,,1.0,0.0,48.0,26.0,0.596,-0.9062680082018058,-2.0,0.991202256757722,1.0855276102953322,-0.0943253535376102
42,Exp1,d11032021,ZGrrY,interference,1.0,3.0,42.0,18.0,55.0,Krasb1.jpg,Lewic1.jpg,64.0,59.0,0.0,,0.0,1.0,18.0,55.0,0.665,-0.7965739087549474,5.0,0.991202256757722,0.755388872913696,0.2358133838440258
43,Exp1,d11032021,ZGrrY,interference,0.0,3.0,43.0,39.0,45.0,Dekb1n.jpg,Klia1n.jpg,36.0,42.0,0.0,,,1.0,39.0,45.0,0.702,-0.7377524351385163,-6.0,-0.3293526927688228,-0.0463766321559918,-0.282976060612831
44,Exp1,d11032021,ZGrrY,interference,0.0,3.0,44.0,57.0,33.0,Lewc1n.jpg,Kupc1n.jpg,59.0,57.0,0.0,,,1.0,57.0,33.0,0.556,-0.9698587904898394,2.0,0.755388872913696,0.6610635193760858,0.0943253535376102
45,Exp1,d11032021,ZGrrY,interference,0.0,3.0,45.0,11.0,12.0,Wdekb1.jpg,Kupkc1.jpg,22.0,17.0,0.0,,,0.0,12.0,11.0,0.654,-0.8140613738841568,5.0,-0.9896301675320952,-1.225443551376121,0.2358133838440258
46,Exp1,d11032021,ZGrrY,interference,0.0,3.0,46.0,51.0,5.0,Gora1n.jpg,Kupb1n.jpg,25.0,62.0,0.0,,,0.0,5.0,51.0,0.781,-0.6121606401196495,-37.0,-0.8481421372256797,0.8968769032201116,-1.7450190404457913
47,Exp1,d11032021,ZGrrY,interference,1.0,3.0,47.0,58.0,49.0,Mackc1.jpg,Hinda1.jpg,28.0,45.0,0.0,,0.0,1.0,58.0,49.0,0.602,-0.8967293908586007,-17.0,-0.7066541069192641,0.0951113981504237,-0.8017655050696878
48,Exp1,d11042021,l6WpQ,interference,0.0,1.0,0.0,25.0,32.0,Clifa1.jpg,Macka1.jpg,33.0,89.0,0.0,,,0.0,32.0,25.0,1.101,-0.7457699117292826,-56.0,-1.4547672371767923,0.5225862890829253,-1.9773535262597173
49,Exp1,d11042021,l6WpQ,interference,1.0,1.0,1.0,17.0,56.0,Picab1.jpg,Luisc1.jpg,93.0,83.0,1.0,,1.0,0.0,56.0,17.0,1.129,-0.6919543540721467,10.0,0.6638258266729051,0.3107269826979555,0.3530988439749495
50,Exp1,d11042021,l6WpQ,interference,0.0,1.0,2.0,30.0,39.0,Lasse1.jpg,Dekb1n.jpg,92.0,84.0,0.0,,,1.0,30.0,39.0,1.657,0.3228533046052731,8.0,0.6285159422754102,0.3460368670954505,0.2824790751799597
51,Exp1,d11042021,l6WpQ,interference,1.0,1.0,3.0,20.0,31.0,Gorc1n.jpg,Maca1n.jpg,87.0,85.0,1.0,,0.0,1.0,20.0,31.0,2.86,2.635000299660076,2.0,0.4519665202879354,0.3813467514929454,0.0706197687949899
52,Exp1,d11042021,l6WpQ,interference,1.0,1.0,4.0,53.0,10.0,Gorka1.jpg,Stera1.jpg,67.0,95.0,1.0,,1.0,0.0,10.0,53.0,2.138,1.247327705786786,-28.0,-0.2542311676619638,0.734445595467895,-0.9886767631298587
53,Exp1,d11042021,l6WpQ,interference,0.0,1.0,5.0,7.0,43.0,Pica1n.jpg,Picac1.jpg,82.0,94.0,0.0,,,0.0,43.0,7.0,1.625,0.2613498101399749,-12.0,0.2754170983004605,0.6991357110704001,-0.4237186127699395
54,Exp1,d11042021,l6WpQ,interference,1.0,1.0,6.0,8.0,19.0,Klina1.jpg,Macc1n.jpg,95.0,94.0,1.0,,1.0,0.0,19.0,8.0,1.077,-0.7918975325782563,1.0,0.734445595467895,0.6991357110704001,0.0353098843974949
55,Exp1,d11042021,l6WpQ,interference,0.0,1.0,7.0,40.0,6.0,Krab1n.jpg,Wdekc1.jpg,95.0,84.0,0.0,,,1.0,40.0,6.0,1.633,0.2767256837562994,11.0,0.734445595467895,0.3460368670954505,0.3884087283724445
56,Exp1,d11042021,l6WpQ,interference,0.0,1.0,8.0,38.0,50.0,Lasc1n.jpg,Gorke1.jpg,94.0,79.0,0.0,,,1.0,38.0,50.0,1.293,-0.3767489449374937,15.0,0.6991357110704001,0.1694874451079757,0.5296482659624244
57,Exp1,d11042021,l6WpQ,interference,1.0,1.0,9.0,57.0,22.0,Lewc1n.jpg,Macb1n.jpg,83.0,86.0,1.0,,0.0,1.0,57.0,22.0,1.704,0.4131865621011796,-3.0,0.3107269826979555,0.4166566358904404,-0.1059296531924848
58,Exp1,d11042021,l6WpQ,interference,1.0,1.0,10.0,28.0,1.0,Krasa1.jpg,Lewia1.jpg,89.0,94.0,1.0,,1.0,1.0,28.0,1.0,3.54,3.9419495570476624,-5.0,0.5225862890829253,0.6991357110704001,-0.1765494219874748
59,Exp1,d11042021,l6WpQ,interference,0.0,1.0,11.0,42.0,55.0,Picc1n.jpg,Lewic1.jpg,78.0,85.0,0.0,,,0.0,55.0,42.0,1.794,0.5861651402848309,-7.0,0.1341775607104807,0.3813467514929454,-0.2471691907824647
60,Exp1,d11042021,l6WpQ,interference,1.0,1.0,12.0,23.0,27.0,Lewib1.jpg,Vinb1n.jpg,88.0,90.0,1.0,,0.0,1.0,23.0,27.0,1.754,0.5092857722032081,-2.0,0.4872764046854303,0.5578961734804203,-0.0706197687949899
61,Exp1,d11042021,l6WpQ,interference,0.0,1.0,13.0,45.0,47.0,Klia1n.jpg,Kupkd1.jpg,70.0,86.0,0.0,,,0.0,47.0,45.0,2.794,2.5081493423253987,-16.0,-0.1483015144694789,0.4166566358904404,-0.5649581503599194
62,Exp1,d11042021,l6WpQ,interference,0.0,1.0,14.0,0.0,51.0,Gorkc1.jpg,Gora1n.jpg,95.0,91.0,0.0,,,1.0,0.0,51.0,1.687,0.3805128306664901,4.0,0.734445595467895,0.5932060578779152,0.1412395375899797
63,Exp1,d11042021,l6WpQ,interference,1.0,1.0,15.0,36.0,16.0,Gorkf1.jpg,Lewa1n.jpg,80.0,84.0,1.0,,0.0,1.0,36.0,16.0,1.929,0.8456330075603076,-4.0,0.2047973295054706,0.3460368670954505,-0.1412395375899798
64,Exp1,d11042021,l6WpQ,interference,0.0,2.0,16.0,7.0,43.0,Pica1n.jpg,Picac1.jpg,82.0,94.0,1.0,,,0.0,43.0,7.0,1.463,-0.0500116305905969,-12.0,0.2754170983004605,0.6991357110704001,-0.4237186127699395
65,Exp1,d11042021,l6WpQ,interference,0.0,2.0,17.0,25.0,32.0,Clifa1.jpg,Macka1.jpg,33.0,89.0,1.0,,,0.0,32.0,25.0,1.206,-0.543961570515023,-56.0,-1.4547672371767923,0.5225862890829253,-1.9773535262597173
66,Exp1,d11042021,l6WpQ,interference,0.0,2.0,18.0,40.0,6.0,Krab1n.jpg,Wdekc1.jpg,95.0,84.0,1.0,,,1.0,40.0,6.0,1.83,0.6553565715582914,11.0,0.734445595467895,0.3460368670954505,0.3884087283724445
67,Exp1,d11042021,l6WpQ,interference,0.0,2.0,19.0,45.0,47.0,Klia1n.jpg,Kupkd1.jpg,70.0,86.0,1.0,,,0.0,47.0,45.0,1.245,-0.4690041866354406,-16.0,-0.1483015144694789,0.4166566358904404,-0.5649581503599194
68,Exp1,d11042021,l6WpQ,interference,1.0,2.0,20.0,17.0,56.0,Picab1.jpg,Luisc1.jpg,93.0,83.0,0.0,,1.0,0.0,56.0,17.0,1.169,-0.6150749859905239,10.0,0.6638258266729051,0.3107269826979555,0.3530988439749495
69,Exp1,d11042021,l6WpQ,interference,0.0,2.0,21.0,38.0,50.0,Lasc1n.jpg,Gorke1.jpg,94.0,79.0,1.0,,,1.0,38.0,50.0,1.587,0.1883144104624332,15.0,0.6991357110704001,0.1694874451079757,0.5296482659624244
70,Exp1,d11042021,l6WpQ,interference,0.0,2.0,22.0,30.0,39.0,Lasse1.jpg,Dekb1n.jpg,92.0,84.0,1.0,,,1.0,30.0,39.0,1.491,0.003803927066539,8.0,0.6285159422754102,0.3460368670954505,0.2824790751799597
71,Exp1,d11042021,l6WpQ,interference,1.0,2.0,23.0,36.0,16.0,Gorkf1.jpg,Lewa1n.jpg,80.0,84.0,0.0,,0.0,1.0,36.0,16.0,1.721,0.4458602935358695,-4.0,0.2047973295054706,0.3460368670954505,-0.1412395375899798
72,Exp1,d11042021,l6WpQ,interference,1.0,2.0,24.0,57.0,22.0,Lewc1n.jpg,Macb1n.jpg,83.0,86.0,0.0,,0.0,1.0,57.0,22.0,1.208,-0.540117602110942,-3.0,0.3107269826979555,0.4166566358904404,-0.1059296531924848
73,Exp1,d11042021,l6WpQ,interference,1.0,2.0,25.0,53.0,10.0,Gorka1.jpg,Stera1.jpg,67.0,95.0,0.0,,1.0,0.0,10.0,53.0,1.461,-0.053855598994678,-28.0,-0.2542311676619638,0.734445595467895,-0.9886767631298587
74,Exp1,d11042021,l6WpQ,interference,1.0,2.0,26.0,20.0,31.0,Gorc1n.jpg,Maca1n.jpg,87.0,85.0,0.0,,0.0,1.0,20.0,31.0,1.846,0.6861083187909405,2.0,0.4519665202879354,0.3813467514929454,0.0706197687949899
75,Exp1,d11042021,l6WpQ,interference,0.0,2.0,27.0,42.0,55.0,Picc1n.jpg,Lewic1.jpg,78.0,85.0,1.0,,,0.0,55.0,42.0,1.303,-0.357529102917088,-7.0,0.1341775607104807,0.3813467514929454,-0.2471691907824647
76,Exp1,d11042021,l6WpQ,interference,1.0,2.0,28.0,23.0,27.0,Lewib1.jpg,Vinb1n.jpg,88.0,90.0,0.0,,0.0,1.0,23.0,27.0,1.87,0.7322359396399142,-2.0,0.4872764046854303,0.5578961734804203,-0.0706197687949899
77,Exp1,d11042021,l6WpQ,interference,1.0,2.0,29.0,28.0,1.0,Krasa1.jpg,Lewia1.jpg,89.0,94.0,0.0,,1.0,1.0,28.0,1.0,1.393,-0.1845505247334368,-5.0,0.5225862890829253,0.6991357110704001,-0.1765494219874748
78,Exp1,d11042021,l6WpQ,interference,1.0,2.0,30.0,8.0,19.0,Klina1.jpg,Macc1n.jpg,95.0,94.0,0.0,,1.0,0.0,19.0,8.0,1.389,-0.192238461541599,1.0,0.734445595467895,0.6991357110704001,0.0353098843974949
79,Exp1,d11042021,l6WpQ,interference,0.0,2.0,31.0,0.0,51.0,Gorkc1.jpg,Gora1n.jpg,95.0,91.0,1.0,,,1.0,0.0,51.0,0.929,-1.0763511944802602,4.0,0.734445595467895,0.5932060578779152,0.1412395375899797
80,Exp1,d11042021,l6WpQ,interference,0.0,3.0,32.0,38.0,50.0,Lasc1n.jpg,Gorke1.jpg,94.0,79.0,0.0,,,1.0,38.0,50.0,1.421,-0.1307349670763008,15.0,0.6991357110704001,0.1694874451079757,0.5296482659624244
81,Exp1,d11042021,l6WpQ,interference,0.0,3.0,33.0,7.0,43.0,Pica1n.jpg,Picac1.jpg,82.0,94.0,0.0,,,0.0,43.0,7.0,1.162,-0.6285288754048081,-12.0,0.2754170983004605,0.6991357110704001,-0.4237186127699395
82,Exp1,d11042021,l6WpQ,interference,1.0,3.0,34.0,28.0,1.0,Krasa1.jpg,Lewia1.jpg,89.0,94.0,0.0,,1.0,1.0,28.0,1.0,1.162,-0.6285288754048081,-5.0,0.5225862890829253,0.6991357110704001,-0.1765494219874748
83,Exp1,d11042021,l6WpQ,interference,1.0,3.0,35.0,57.0,22.0,Lewc1n.jpg,Macb1n.jpg,83.0,86.0,0.0,,0.0,1.0,57.0,22.0,1.149,-0.6535146700313353,-3.0,0.3107269826979555,0.4166566358904404,-0.1059296531924848
84,Exp1,d11042021,l6WpQ,interference,1.0,3.0,36.0,53.0,10.0,Gorka1.jpg,Stera1.jpg,67.0,95.0,0.0,,1.0,0.0,10.0,53.0,1.022,-0.8976066636904874,-28.0,-0.2542311676619638,0.734445595467895,-0.9886767631298587
85,Exp1,d11042021,l6WpQ,interference,0.0,3.0,37.0,30.0,39.0,Lasse1.jpg,Dekb1n.jpg,92.0,84.0,0.0,,,1.0,30.0,39.0,1.383,-0.2037703667538425,8.0,0.6285159422754102,0.3460368670954505,0.2824790751799597
86,Exp1,d11042021,l6WpQ,interference,1.0,3.0,38.0,36.0,16.0,Gorkf1.jpg,Lewa1n.jpg,80.0,84.0,0.0,,0.0,1.0,36.0,16.0,1.194,-0.5670253809395099,-4.0,0.2047973295054706,0.3460368670954505,-0.1412395375899798
87,Exp1,d11042021,l6WpQ,interference,0.0,3.0,39.0,0.0,51.0,Gorkc1.jpg,Gora1n.jpg,95.0,91.0,0.0,,,1.0,0.0,51.0,0.816,-1.2935354093108444,4.0,0.734445595467895,0.5932060578779152,0.1412395375899797
88,Exp1,d11042021,l6WpQ,interference,1.0,3.0,40.0,20.0,31.0,Gorc1n.jpg,Maca1n.jpg,87.0,85.0,0.0,,0.0,1.0,20.0,31.0,0.878,-1.1743723887843291,2.0,0.4519665202879354,0.3813467514929454,0.0706197687949899
89,Exp1,d11042021,l6WpQ,interference,1.0,3.0,41.0,23.0,27.0,Lewib1.jpg,Vinb1n.jpg,88.0,90.0,0.0,,0.0,1.0,23.0,27.0,0.909,-1.1147908785210716,-2.0,0.4872764046854303,0.5578961734804203,-0.0706197687949899
90,Exp1,d11042021,l6WpQ,interference,0.0,3.0,42.0,42.0,55.0,Picc1n.jpg,Lewic1.jpg,78.0,85.0,0.0,,,0.0,55.0,42.0,1.583,0.1806264736542709,-7.0,0.1341775607104807,0.3813467514929454,-0.2471691907824647
91,Exp1,d11042021,l6WpQ,interference,1.0,3.0,43.0,17.0,56.0,Picab1.jpg,Luisc1.jpg,93.0,83.0,0.0,,1.0,0.0,56.0,17.0,1.391,-0.1883944931375179,10.0,0.6638258266729051,0.3107269826979555,0.3530988439749495
92,Exp1,d11042021,l6WpQ,interference,1.0,3.0,44.0,8.0,19.0,Klina1.jpg,Macc1n.jpg,95.0,94.0,0.0,,1.0,0.0,19.0,8.0,1.163,-0.6266068912027674,1.0,0.734445595467895,0.6991357110704001,0.0353098843974949
93,Exp1,d11042021,l6WpQ,interference,0.0,3.0,45.0,45.0,47.0,Klia1n.jpg,Kupkd1.jpg,70.0,86.0,0.0,,,0.0,47.0,45.0,1.169,-0.6150749859905239,-16.0,-0.1483015144694789,0.4166566358904404,-0.5649581503599194
94,Exp1,d11042021,l6WpQ,interference,0.0,3.0,46.0,25.0,32.0,Clifa1.jpg,Macka1.jpg,33.0,89.0,0.0,,,0.0,32.0,25.0,0.944,-1.0475214314496517,-56.0,-1.4547672371767923,0.5225862890829253,-1.9773535262597173
95,Exp1,d11042021,l6WpQ,interference,0.0,3.0,47.0,40.0,6.0,Krab1n.jpg,Wdekc1.jpg,95.0,84.0,0.0,,,1.0,40.0,6.0,1.301,-0.3613730713211692,11.0,0.734445595467895,0.3460368670954505,0.3884087283724445
96,Exp1,d11032021,GCq3m,interference,0.0,1.0,0.0,14.0,25.0,Kupkb1.jpg,Clifa1.jpg,13.0,8.0,0.0,,,1.0,14.0,25.0,2.35,1.152074591665207,5.0,0.0499877247639024,-0.4337644503706368,0.4837521751345393
97,Exp1,d11032021,GCq3m,interference,1.0,1.0,1.0,33.0,8.0,Kupc1n.jpg,Klina1.jpg,8.0,9.0,1.0,,0.0,1.0,33.0,8.0,0.718,-0.6616093957279934,-1.0,-0.4337644503706368,-0.337014015343729,-0.0967504350269078
98,Exp1,d11032021,GCq3m,interference,0.0,1.0,2.0,53.0,5.0,Gorka1.jpg,Kupb1n.jpg,8.0,15.0,0.0,,,0.0,5.0,53.0,0.938,-0.4171176817411649,-7.0,-0.4337644503706368,0.2434885948177182,-0.677253045188355
99,Exp1,d11032021,GCq3m,interference,0.0,1.0,3.0,35.0,36.0,Wdeka1.jpg,Gorkf1.jpg,5.0,7.0,0.0,,,1.0,35.0,36.0,1.014,-0.3326569078184422,-2.0,-0.7240157554513604,-0.5305148853975447,-0.1935008700538157
100,Exp1,d11032021,GCq3m,interference,0.0,1.0,4.0,47.0,1.0,Kupkd1.jpg,Lewia1.jpg,12.0,9.0,0.0,,,0.0,1.0,47.0,0.57,-0.8260856396827689,3.0,-0.0467627102630053,-0.337014015343729,0.2902513050807236
101,Exp1,d11032021,GCq3m,interference,1.0,1.0,5.0,32.0,59.0,Macka1.jpg,Kraa1n.jpg,12.0,12.0,1.0,,1.0,0.0,59.0,32.0,1.09,-0.2481961338957196,0.0,-0.0467627102630053,-0.0467627102630053,0.0
102,Exp1,d11032021,GCq3m,interference,1.0,1.0,6.0,17.0,0.0,Picab1.jpg,Gorkc1.jpg,14.0,7.0,1.0,,0.0,1.0,17.0,0.0,1.619,0.339695305645336,7.0,0.1467381597908103,-0.5305148853975447,0.6772530451883549
103,Exp1,d11032021,GCq3m,interference,1.0,1.0,7.0,23.0,27.0,Lewib1.jpg,Vinb1n.jpg,6.0,6.0,1.0,,1.0,0.0,27.0,23.0,1.553,0.2663477914492874,0.0,-0.6272653204244526,-0.6272653204244526,0.0
104,Exp1,d11032021,GCq3m,interference,0.0,1.0,8.0,48.0,46.0,Picb1n.jpg,Deka1n.jpg,10.0,19.0,0.0,,,0.0,46.0,48.0,6.358,5.606269090116155,-9.0,-0.2402635803168211,0.6304903349253497,-0.8707539152421708
105,Exp1,d11032021,GCq3m,interference,1.0,1.0,9.0,45.0,50.0,Klia1n.jpg,Gorke1.jpg,11.0,8.0,1.0,,1.0,0.0,50.0,45.0,1.683,0.4108201678960498,3.0,-0.1435131452899132,-0.4337644503706368,0.2902513050807236
106,Exp1,d11032021,GCq3m,interference,1.0,1.0,10.0,44.0,26.0,Lassf1.jpg,Clib1n.jpg,11.0,12.0,1.0,,1.0,1.0,44.0,26.0,3.207,2.1044809502411708,-1.0,-0.1435131452899132,-0.0467627102630053,-0.0967504350269078
107,Exp1,d11032021,GCq3m,interference,0.0,1.0,11.0,40.0,3.0,Krab1n.jpg,Fogeg1.jpg,5.0,18.0,0.0,,,0.0,3.0,40.0,1.351,0.0418599449704722,-13.0,-0.7240157554513604,0.5337398998984418,-1.2577556553498024
108,Exp1,d11032021,GCq3m,interference,0.0,1.0,12.0,41.0,4.0,Vincb1.jpg,Mackb1.jpg,10.0,5.0,0.0,,,1.0,41.0,4.0,1.34,0.0296353592711309,5.0,-0.2402635803168211,-0.7240157554513604,0.4837521751345393
109,Exp1,d11032021,GCq3m,interference,1.0,1.0,13.0,56.0,29.0,Luisc1.jpg,Clifb1.jpg,14.0,14.0,1.0,,0.0,1.0,56.0,29.0,1.207,-0.1181709950936335,0.0,0.1467381597908103,0.1467381597908103,0.0
110,Exp1,d11032021,GCq3m,interference,1.0,1.0,14.0,10.0,6.0,Stera1.jpg,Wdekc1.jpg,8.0,5.0,1.0,,0.0,1.0,10.0,6.0,1.845,0.5908549754681689,3.0,-0.4337644503706368,-0.7240157554513604,0.2902513050807236
111,Exp1,d11032021,GCq3m,interference,0.0,1.0,15.0,51.0,34.0,Gora1n.jpg,Monb1n.jpg,6.0,11.0,0.0,,,0.0,34.0,51.0,2.055,0.8242334297283236,-5.0,-0.6272653204244526,-0.1435131452899132,-0.4837521751345394
112,Exp1,d11032021,GCq3m,interference,0.0,2.0,16.0,14.0,25.0,Kupkb1.jpg,Clifa1.jpg,13.0,8.0,1.0,,,1.0,14.0,25.0,0.893,-0.4671273505111979,5.0,0.0499877247639024,-0.4337644503706368,0.4837521751345393
113,Exp1,d11032021,GCq3m,interference,1.0,2.0,17.0,56.0,29.0,Luisc1.jpg,Clifb1.jpg,14.0,14.0,0.0,,0.0,1.0,56.0,29.0,1.08,-0.2593093936223937,0.0,0.1467381597908103,0.1467381597908103,0.0
114,Exp1,d11032021,GCq3m,interference,1.0,2.0,18.0,33.0,8.0,Kupc1n.jpg,Klina1.jpg,8.0,9.0,0.0,,0.0,1.0,33.0,8.0,0.617,-0.773853318967401,-1.0,-0.4337644503706368,-0.337014015343729,-0.0967504350269078
115,Exp1,d11032021,GCq3m,interference,1.0,2.0,19.0,44.0,26.0,Lassf1.jpg,Clib1n.jpg,11.0,12.0,0.0,,1.0,1.0,44.0,26.0,0.758,-0.6171563568212972,-1.0,-0.1435131452899132,-0.0467627102630053,-0.0967504350269078
116,Exp1,d11032021,GCq3m,interference,0.0,2.0,20.0,47.0,1.0,Kupkd1.jpg,Lewia1.jpg,12.0,9.0,1.0,,,0.0,1.0,47.0,0.629,-0.7605174072953921,3.0,-0.0467627102630053,-0.337014015343729,0.2902513050807236
117,Exp1,d11032021,GCq3m,interference,0.0,2.0,21.0,51.0,34.0,Gora1n.jpg,Monb1n.jpg,6.0,11.0,1.0,,,0.0,34.0,51.0,0.968,-0.3837779025611428,-5.0,-0.6272653204244526,-0.1435131452899132,-0.4837521751345394
118,Exp1,d11032021,GCq3m,interference,0.0,2.0,22.0,41.0,4.0,Vincb1.jpg,Mackb1.jpg,10.0,5.0,1.0,,,1.0,41.0,4.0,1.681,0.408597515950715,5.0,-0.2402635803168211,-0.7240157554513604,0.4837521751345393
119,Exp1,d11032021,GCq3m,interference,0.0,2.0,23.0,48.0,46.0,Picb1n.jpg,Deka1n.jpg,10.0,19.0,1.0,,,0.0,46.0,48.0,1.213,-0.1115030392576291,-9.0,-0.2402635803168211,0.6304903349253497,-0.8707539152421708
120,Exp1,d11032021,GCq3m,interference,0.0,2.0,24.0,53.0,5.0,Gorka1.jpg,Kupb1n.jpg,8.0,15.0,1.0,,,0.0,5.0,53.0,1.794,0.5341773508621315,-7.0,-0.4337644503706368,0.2434885948177182,-0.677253045188355
121,Exp1,d11032021,GCq3m,interference,0.0,2.0,25.0,40.0,3.0,Krab1n.jpg,Fogeg1.jpg,5.0,18.0,1.0,,,0.0,3.0,40.0,1.391,0.0863129838771683,-13.0,-0.7240157554513604,0.5337398998984418,-1.2577556553498024
122,Exp1,d11032021,GCq3m,interference,0.0,2.0,26.0,35.0,36.0,Wdeka1.jpg,Gorkf1.jpg,5.0,7.0,1.0,,,1.0,35.0,36.0,1.371,0.0640864644238203,-2.0,-0.7240157554513604,-0.5305148853975447,-0.1935008700538157
123,Exp1,d11032021,GCq3m,interference,1.0,2.0,27.0,10.0,6.0,Stera1.jpg,Wdekc1.jpg,8.0,5.0,0.0,,0.0,1.0,10.0,6.0,1.47,0.1741077357178931,3.0,-0.4337644503706368,-0.7240157554513604,0.2902513050807236
124,Exp1,d11032021,GCq3m,interference,1.0,2.0,28.0,32.0,59.0,Macka1.jpg,Kraa1n.jpg,12.0,12.0,0.0,,1.0,0.0,59.0,32.0,1.481,0.1863323214172346,0.0,-0.0467627102630053,-0.0467627102630053,0.0
125,Exp1,d11032021,GCq3m,interference,1.0,2.0,29.0,45.0,50.0,Klia1n.jpg,Gorke1.jpg,11.0,8.0,0.0,,1.0,0.0,50.0,45.0,1.721,0.4530505548574111,3.0,-0.1435131452899132,-0.4337644503706368,0.2902513050807236
126,Exp1,d11032021,GCq3m,interference,1.0,2.0,30.0,23.0,27.0,Lewib1.jpg,Vinb1n.jpg,6.0,6.0,0.0,,1.0,0.0,27.0,23.0,0.689,-0.6938378489353481,0.0,-0.6272653204244526,-0.6272653204244526,0.0
127,Exp1,d11032021,GCq3m,interference,1.0,2.0,31.0,17.0,0.0,Picab1.jpg,Gorkc1.jpg,14.0,7.0,0.0,,0.0,1.0,17.0,0.0,0.891,-0.4693500024565327,7.0,0.1467381597908103,-0.5305148853975447,0.6772530451883549
128,Exp1,d11032021,GCq3m,interference,1.0,3.0,32.0,32.0,59.0,Macka1.jpg,Kraa1n.jpg,12.0,12.0,0.0,,1.0,0.0,59.0,32.0,0.818,-0.5504767984612532,0.0,-0.0467627102630053,-0.0467627102630053,0.0
129,Exp1,d11032021,GCq3m,interference,1.0,3.0,33.0,23.0,27.0,Lewib1.jpg,Vinb1n.jpg,6.0,6.0,0.0,,1.0,0.0,27.0,23.0,0.837,-0.5293616049805725,0.0,-0.6272653204244526,-0.6272653204244526,0.0
130,Exp1,d11032021,GCq3m,interference,0.0,3.0,34.0,47.0,1.0,Kupkd1.jpg,Lewia1.jpg,12.0,9.0,0.0,,,0.0,1.0,47.0,0.73,-0.6482734840559845,3.0,-0.0467627102630053,-0.337014015343729,0.2902513050807236
131,Exp1,d11032021,GCq3m,interference,1.0,3.0,35.0,10.0,6.0,Stera1.jpg,Wdekc1.jpg,8.0,5.0,0.0,,0.0,1.0,10.0,6.0,1.08,-0.2593093936223937,3.0,-0.4337644503706368,-0.7240157554513604,0.2902513050807236
132,Exp1,d11032021,GCq3m,interference,0.0,3.0,36.0,40.0,3.0,Krab1n.jpg,Fogeg1.jpg,5.0,18.0,0.0,,,0.0,3.0,40.0,1.303,-0.0114837017175631,-13.0,-0.7240157554513604,0.5337398998984418,-1.2577556553498024
133,Exp1,d11032021,GCq3m,interference,1.0,3.0,37.0,33.0,8.0,Kupc1n.jpg,Klina1.jpg,8.0,9.0,0.0,,0.0,1.0,33.0,8.0,0.842,-0.5238049751172354,-1.0,-0.4337644503706368,-0.337014015343729,-0.0967504350269078
134,Exp1,d11032021,GCq3m,interference,1.0,3.0,38.0,44.0,26.0,Lassf1.jpg,Clib1n.jpg,11.0,12.0,0.0,,1.0,1.0,44.0,26.0,1.547,0.259679835613283,-1.0,-0.1435131452899132,-0.0467627102630053,-0.0967504350269078
135,Exp1,d11032021,GCq3m,interference,0.0,3.0,39.0,48.0,46.0,Picb1n.jpg,Deka1n.jpg,10.0,19.0,0.0,,,0.0,46.0,48.0,0.799,-0.5715919919419337,-9.0,-0.2402635803168211,0.6304903349253497,-0.8707539152421708
136,Exp1,d11032021,GCq3m,interference,0.0,3.0,40.0,51.0,34.0,Gora1n.jpg,Monb1n.jpg,6.0,11.0,0.0,,,0.0,34.0,51.0,1.111,-0.2248582884697043,-5.0,-0.6272653204244526,-0.1435131452899132,-0.4837521751345394
137,Exp1,d11032021,GCq3m,interference,0.0,3.0,41.0,53.0,5.0,Gorka1.jpg,Kupb1n.jpg,8.0,15.0,0.0,,,0.0,5.0,53.0,0.948,-0.4060044220144909,-7.0,-0.4337644503706368,0.2434885948177182,-0.677253045188355
138,Exp1,d11032021,GCq3m,interference,1.0,3.0,42.0,45.0,50.0,Klia1n.jpg,Gorke1.jpg,11.0,8.0,0.0,,1.0,0.0,50.0,45.0,1.109,-0.2270809404150391,3.0,-0.1435131452899132,-0.4337644503706368,0.2902513050807236
139,Exp1,d11032021,GCq3m,interference,1.0,3.0,43.0,17.0,0.0,Picab1.jpg,Gorkc1.jpg,14.0,7.0,0.0,,0.0,1.0,17.0,0.0,0.78,-0.5927071854226144,7.0,0.1467381597908103,-0.5305148853975447,0.6772530451883549
140,Exp1,d11032021,GCq3m,interference,1.0,3.0,44.0,56.0,29.0,Luisc1.jpg,Clifb1.jpg,14.0,14.0,0.0,,0.0,1.0,56.0,29.0,0.782,-0.5904845334772796,0.0,0.1467381597908103,0.1467381597908103,0.0
141,Exp1,d11032021,GCq3m,interference,0.0,3.0,45.0,41.0,4.0,Vincb1.jpg,Mackb1.jpg,10.0,5.0,0.0,,,1.0,41.0,4.0,0.842,-0.5238049751172354,5.0,-0.2402635803168211,-0.7240157554513604,0.4837521751345393
142,Exp1,d11032021,GCq3m,interference,0.0,3.0,46.0,14.0,25.0,Kupkb1.jpg,Clifa1.jpg,13.0,8.0,0.0,,,1.0,14.0,25.0,0.66,-0.7260663021427026,5.0,0.0499877247639024,-0.4337644503706368,0.4837521751345393
143,Exp1,d11032021,GCq3m,interference,0.0,3.0,47.0,35.0,36.0,Wdeka1.jpg,Gorkf1.jpg,5.0,7.0,0.0,,,1.0,35.0,36.0,1.307,-0.0070383978268935,-2.0,-0.7240157554513604,-0.5305148853975447,-0.1935008700538157
144,Exp1,d11032021,qBGkp,interference,1.0,1.0,0.0,46.0,36.0,Deka1n.jpg,Gorkf1.jpg,6.0,10.0,1.0,,1.0,0.0,36.0,46.0,0.801,-0.5981976374561914,-4.0,-0.4103795356642586,-0.1604021535337457,-0.2499773821305129
145,Exp1,d11032021,qBGkp,interference,1.0,1.0,1.0,41.0,22.0,Vincb1.jpg,Macb1n.jpg,0.0,12.0,1.0,,0.0,1.0,41.0,22.0,3.775,4.019686265969411,-12.0,-0.785345608860028,-0.0354134624684893,-0.7499321463915387
146,Exp1,d11032021,qBGkp,interference,0.0,1.0,2.0,31.0,5.0,Maca1n.jpg,Kupb1n.jpg,9.0,15.0,0.0,,,0.0,5.0,31.0,1.451,0.4110910435211595,-6.0,-0.222896499066374,0.1520695741293953,-0.3749660731957693
147,Exp1,d11032021,qBGkp,interference,1.0,1.0,3.0,19.0,8.0,Macc1n.jpg,Klina1.jpg,18.0,2.0,1.0,,1.0,1.0,19.0,8.0,2.287,1.7091915624397214,16.0,0.33955261072728,-0.6603569177947716,0.9999095285220516
148,Exp1,d11032021,qBGkp,interference,0.0,1.0,4.0,32.0,12.0,Macka1.jpg,Kupkc1.jpg,16.0,4.0,0.0,,,1.0,32.0,12.0,1.312,0.1952585409736952,12.0,0.2145639196620236,-0.5353682267295151,0.7499321463915387
149,Exp1,d11032021,qBGkp,interference,0.0,1.0,5.0,24.0,11.0,Dekoa1.jpg,Wdekb1.jpg,20.0,2.0,0.0,,,1.0,24.0,11.0,0.875,-0.4832940030064623,18.0,0.4645413017925365,-0.6603569177947716,1.124898219587308
150,Exp1,d11032021,qBGkp,interference,1.0,1.0,6.0,53.0,39.0,Gorka1.jpg,Dekb1n.jpg,0.0,2.0,1.0,,0.0,1.0,53.0,39.0,3.174,3.086482424019583,-2.0,-0.785345608860028,-0.6603569177947716,-0.1249886910652564
151,Exp1,d11032021,qBGkp,interference,1.0,1.0,7.0,7.0,3.0,Pica1n.jpg,Fogeg1.jpg,6.0,1.0,1.0,,0.0,1.0,7.0,3.0,1.929,1.1533064119937344,5.0,-0.4103795356642586,-0.7228512633273998,0.3124717276631411
152,Exp1,d11032021,qBGkp,interference,0.0,1.0,8.0,1.0,37.0,Lewia1.jpg,Mondb1.jpg,2.0,1.0,0.0,,,1.0,1.0,37.0,1.077,-0.1696381359950394,1.0,-0.6603569177947716,-0.7228512633273998,0.0624943455326282
153,Exp1,d11032021,qBGkp,interference,0.0,1.0,9.0,10.0,4.0,Stera1.jpg,Mackb1.jpg,0.0,3.0,0.0,,,1.0,10.0,4.0,1.152,-0.0531817497284221,-3.0,-0.785345608860028,-0.5978625722621433,-0.1874830365978846
154,Exp1,d11032021,qBGkp,interference,1.0,1.0,10.0,33.0,57.0,Kupc1n.jpg,Lewc1n.jpg,0.0,4.0,1.0,,0.0,1.0,33.0,57.0,0.876,-0.481741251189574,-4.0,-0.785345608860028,-0.5353682267295151,-0.2499773821305129
155,Exp1,d11032021,qBGkp,interference,1.0,1.0,11.0,51.0,34.0,Gora1n.jpg,Monb1n.jpg,12.0,18.0,1.0,,1.0,0.0,34.0,51.0,2.46,1.9778176267613856,-6.0,-0.0354134624684893,0.33955261072728,-0.3749660731957693
156,Exp1,d11032021,qBGkp,interference,0.0,1.0,12.0,40.0,16.0,Krab1n.jpg,Lewa1n.jpg,5.0,4.0,0.0,,,0.0,16.0,40.0,1.191,0.0073755711302191,1.0,-0.4728738811968869,-0.5353682267295151,0.0624943455326282
157,Exp1,d11032021,qBGkp,interference,1.0,1.0,13.0,26.0,14.0,Clib1n.jpg,Kupkb1.jpg,20.0,26.0,1.0,,1.0,0.0,14.0,26.0,1.234,0.074143899256413,-6.0,0.4645413017925365,0.8395073749883059,-0.3749660731957693
158,Exp1,d11032021,qBGkp,interference,0.0,1.0,14.0,17.0,18.0,Picab1.jpg,Krasb1.jpg,20.0,8.0,0.0,,,1.0,17.0,18.0,1.636,0.6983501296454822,12.0,0.4645413017925365,-0.2853908445990022,0.7499321463915387
159,Exp1,d11032021,qBGkp,interference,0.0,1.0,15.0,49.0,0.0,Hinda1.jpg,Gorkc1.jpg,5.0,18.0,0.0,,,1.0,49.0,0.0,1.056,-0.2022459241496922,-13.0,-0.4728738811968869,0.33955261072728,-0.8124264919241669
160,Exp1,d11032021,qBGkp,interference,0.0,2.0,16.0,40.0,16.0,Krab1n.jpg,Lewa1n.jpg,5.0,4.0,1.0,,,0.0,16.0,40.0,1.194,0.0120338265808836,1.0,-0.4728738811968869,-0.5353682267295151,0.0624943455326282
161,Exp1,d11032021,qBGkp,interference,0.0,2.0,17.0,1.0,37.0,Lewia1.jpg,Mondb1.jpg,2.0,1.0,1.0,,,1.0,1.0,37.0,1.176,-0.0159157061231045,1.0,-0.6603569177947716,-0.7228512633273998,0.0624943455326282
162,Exp1,d11032021,qBGkp,interference,1.0,2.0,18.0,7.0,3.0,Pica1n.jpg,Fogeg1.jpg,6.0,1.0,0.0,,0.0,1.0,7.0,3.0,0.875,-0.4832940030064623,5.0,-0.4103795356642586,-0.7228512633273998,0.3124717276631411
163,Exp1,d11032021,qBGkp,interference,1.0,2.0,19.0,26.0,14.0,Clib1n.jpg,Kupkb1.jpg,20.0,26.0,0.0,,1.0,0.0,14.0,26.0,1.184,-0.0034936915879986,-6.0,0.4645413017925365,0.8395073749883059,-0.3749660731957693
164,Exp1,d11032021,qBGkp,interference,1.0,2.0,20.0,53.0,39.0,Gorka1.jpg,Dekb1n.jpg,0.0,2.0,0.0,,0.0,1.0,53.0,39.0,0.99,-0.3047275440643156,-2.0,-0.785345608860028,-0.6603569177947716,-0.1249886910652564
165,Exp1,d11032021,qBGkp,interference,1.0,2.0,21.0,41.0,22.0,Vincb1.jpg,Macb1n.jpg,0.0,12.0,0.0,,0.0,1.0,41.0,22.0,0.852,-0.5190072947948916,-12.0,-0.785345608860028,-0.0354134624684893,-0.7499321463915387
166,Exp1,d11032021,qBGkp,interference,1.0,2.0,22.0,51.0,34.0,Gora1n.jpg,Monb1n.jpg,12.0,18.0,0.0,,1.0,0.0,34.0,51.0,1.161,-0.0392069833764278,-6.0,-0.0354134624684893,0.33955261072728,-0.3749660731957693
167,Exp1,d11032021,qBGkp,interference,0.0,2.0,23.0,17.0,18.0,Picab1.jpg,Krasb1.jpg,20.0,8.0,1.0,,,1.0,17.0,18.0,0.785,-0.6230416665264031,12.0,0.4645413017925365,-0.2853908445990022,0.7499321463915387
168,Exp1,d11032021,qBGkp,interference,1.0,2.0,24.0,19.0,8.0,Macc1n.jpg,Klina1.jpg,18.0,2.0,0.0,,1.0,1.0,19.0,8.0,0.886,-0.4662137330206917,16.0,0.33955261072728,-0.6603569177947716,0.9999095285220516
169,Exp1,d11032021,qBGkp,interference,0.0,2.0,25.0,31.0,5.0,Maca1n.jpg,Kupb1n.jpg,9.0,15.0,1.0,,,0.0,5.0,31.0,1.212,0.0399833592848718,-6.0,-0.222896499066374,0.1520695741293953,-0.3749660731957693
170,Exp1,d11032021,qBGkp,interference,0.0,2.0,26.0,10.0,4.0,Stera1.jpg,Mackb1.jpg,0.0,3.0,1.0,,,1.0,10.0,4.0,2.171,1.5290723516806863,-3.0,-0.785345608860028,-0.5978625722621433,-0.1874830365978846
171,Exp1,d11032021,qBGkp,interference,0.0,2.0,27.0,49.0,0.0,Hinda1.jpg,Gorkc1.jpg,5.0,18.0,1.0,,,1.0,49.0,0.0,1.001,-0.2876472740785452,-13.0,-0.4728738811968869,0.33955261072728,-0.8124264919241669
172,Exp1,d11032021,qBGkp,interference,0.0,2.0,28.0,24.0,11.0,Dekoa1.jpg,Wdekb1.jpg,20.0,2.0,1.0,,,1.0,24.0,11.0,1.393,0.321031438141642,18.0,0.4645413017925365,-0.6603569177947716,1.124898219587308
173,Exp1,d11032021,qBGkp,interference,1.0,2.0,29.0,46.0,36.0,Deka1n.jpg,Gorkf1.jpg,6.0,10.0,0.0,,1.0,0.0,36.0,46.0,1.15,-0.0562872533621985,-4.0,-0.4103795356642586,-0.1604021535337457,-0.2499773821305129
174,Exp1,d11032021,qBGkp,interference,1.0,2.0,30.0,33.0,57.0,Kupc1n.jpg,Lewc1n.jpg,0.0,4.0,0.0,,0.0,1.0,33.0,57.0,1.019,-0.259697741374557,-4.0,-0.785345608860028,-0.5353682267295151,-0.2499773821305129
175,Exp1,d11032021,qBGkp,interference,0.0,2.0,31.0,32.0,12.0,Macka1.jpg,Kupkc1.jpg,16.0,4.0,1.0,,,1.0,32.0,12.0,0.816,-0.574906360202868,12.0,0.2145639196620236,-0.5353682267295151,0.7499321463915387
176,Exp1,d11032021,qBGkp,interference,0.0,3.0,32.0,10.0,4.0,Stera1.jpg,Mackb1.jpg,0.0,3.0,0.0,,,1.0,10.0,4.0,1.102,-0.1308193405728334,-3.0,-0.785345608860028,-0.5978625722621433,-0.1874830365978846
177,Exp1,d11032021,qBGkp,interference,0.0,3.0,33.0,40.0,16.0,Krab1n.jpg,Lewa1n.jpg,5.0,4.0,0.0,,,0.0,16.0,40.0,0.765,-0.6540967028641678,1.0,-0.4728738811968869,-0.5353682267295151,0.0624943455326282
178,Exp1,d11032021,qBGkp,interference,1.0,3.0,34.0,26.0,14.0,Clib1n.jpg,Kupkb1.jpg,20.0,26.0,0.0,,1.0,0.0,14.0,26.0,0.697,-0.7596838264125677,-6.0,0.4645413017925365,0.8395073749883059,-0.3749660731957693
179,Exp1,d11032021,qBGkp,interference,0.0,3.0,35.0,17.0,18.0,Picab1.jpg,Krasb1.jpg,20.0,8.0,0.0,,,1.0,17.0,18.0,0.676,-0.7922916145672204,12.0,0.4645413017925365,-0.2853908445990022,0.7499321463915387
180,Exp1,d11032021,qBGkp,interference,1.0,3.0,36.0,46.0,36.0,Deka1n.jpg,Gorkf1.jpg,6.0,10.0,0.0,,1.0,0.0,36.0,46.0,0.673,-0.7969498700178851,-4.0,-0.4103795356642586,-0.1604021535337457,-0.2499773821305129
181,Exp1,d11032021,qBGkp,interference,0.0,3.0,37.0,24.0,11.0,Dekoa1.jpg,Wdekb1.jpg,20.0,2.0,0.0,,,1.0,24.0,11.0,0.632,-0.8606126945103026,18.0,0.4645413017925365,-0.6603569177947716,1.124898219587308
182,Exp1,d11032021,qBGkp,interference,1.0,3.0,38.0,33.0,57.0,Kupc1n.jpg,Lewc1n.jpg,0.0,4.0,0.0,,0.0,1.0,33.0,57.0,0.575,-0.949119548072932,-4.0,-0.785345608860028,-0.5353682267295151,-0.2499773821305129
183,Exp1,d11032021,qBGkp,interference,1.0,3.0,39.0,19.0,8.0,Macc1n.jpg,Klina1.jpg,18.0,2.0,0.0,,1.0,1.0,19.0,8.0,0.671,-0.8000553736516616,16.0,0.33955261072728,-0.6603569177947716,0.9999095285220516
184,Exp1,d11032021,qBGkp,interference,0.0,3.0,40.0,1.0,37.0,Lewia1.jpg,Mondb1.jpg,2.0,1.0,0.0,,,1.0,1.0,37.0,0.689,-0.7721058409476735,1.0,-0.6603569177947716,-0.7228512633273998,0.0624943455326282
185,Exp1,d11032021,qBGkp,interference,0.0,3.0,41.0,31.0,5.0,Maca1n.jpg,Kupb1n.jpg,9.0,15.0,0.0,,,0.0,5.0,31.0,1.076,-0.1711908878119275,-6.0,-0.222896499066374,0.1520695741293953,-0.3749660731957693
186,Exp1,d11032021,qBGkp,interference,0.0,3.0,42.0,32.0,12.0,Macka1.jpg,Kupkc1.jpg,16.0,4.0,0.0,,,1.0,32.0,12.0,0.715,-0.7317342937085795,12.0,0.2145639196620236,-0.5353682267295151,0.7499321463915387
187,Exp1,d11032021,qBGkp,interference,0.0,3.0,43.0,49.0,0.0,Hinda1.jpg,Gorkc1.jpg,5.0,18.0,0.0,,,1.0,49.0,0.0,0.664,-0.8109246363698792,-13.0,-0.4728738811968869,0.33955261072728,-0.8124264919241669
188,Exp1,d11032021,qBGkp,interference,1.0,3.0,44.0,41.0,22.0,Vincb1.jpg,Macb1n.jpg,0.0,12.0,0.0,,0.0,1.0,41.0,22.0,0.808,-0.5873283747379737,-12.0,-0.785345608860028,-0.0354134624684893,-0.7499321463915387
189,Exp1,d11032021,qBGkp,interference,1.0,3.0,45.0,51.0,34.0,Gora1n.jpg,Monb1n.jpg,12.0,18.0,0.0,,1.0,0.0,34.0,51.0,1.058,-0.1991404205159157,-6.0,-0.0354134624684893,0.33955261072728,-0.3749660731957693
190,Exp1,d11032021,qBGkp,interference,1.0,3.0,46.0,7.0,3.0,Pica1n.jpg,Fogeg1.jpg,6.0,1.0,0.0,,0.0,1.0,7.0,3.0,0.679,-0.7876333591165557,5.0,-0.4103795356642586,-0.7228512633273998,0.3124717276631411
191,Exp1,d11032021,qBGkp,interference,1.0,3.0,47.0,53.0,39.0,Gorka1.jpg,Dekb1n.jpg,0.0,2.0,0.0,,0.0,1.0,53.0,39.0,1.309,0.1906002855230303,-2.0,-0.785345608860028,-0.6603569177947716,-0.1249886910652564
192,Exp1,d11032021,BcmPt,interference,0.0,1.0,0.0,5.0,19.0,Kupb1n.jpg,Macc1n.jpg,62.0,58.0,0.0,,,0.0,19.0,5.0,0.936,-0.2716604343320287,4.0,0.5221468958059482,0.3492982682288068,0.1728486275771414
193,Exp1,d11032021,BcmPt,interference,0.0,1.0,1.0,8.0,15.0,Klina1.jpg,Clia1n.jpg,60.0,33.0,0.0,,,0.0,15.0,8.0,0.869,-0.4198891341643679,27.0,0.4357225820173775,-0.7310056541283273,1.1667282361457048
194,Exp1,d11032021,BcmPt,interference,1.0,1.0,2.0,47.0,27.0,Kupkd1.jpg,Vinb1n.jpg,59.0,66.0,1.0,,1.0,0.0,27.0,47.0,0.971,-0.1942275314345382,-7.0,0.3925104251230921,0.6949955233830897,-0.3024850982599975
195,Exp1,d11032021,BcmPt,interference,0.0,1.0,3.0,42.0,40.0,Picc1n.jpg,Krab1n.jpg,38.0,61.0,0.0,,,1.0,42.0,40.0,1.422,0.8035507316159832,-23.0,-0.5149448696569005,0.4789347389116629,-0.9938796085685632
196,Exp1,d11032021,BcmPt,interference,1.0,1.0,4.0,49.0,37.0,Hinda1.jpg,Mondb1.jpg,37.0,50.0,1.0,,0.0,0.0,37.0,49.0,1.566,1.122131817822802,-13.0,-0.5581570265511858,0.0036010130745238,-0.5617580396257097
197,Exp1,d11032021,BcmPt,interference,0.0,1.0,5.0,14.0,59.0,Kupkb1.jpg,Kraa1n.jpg,58.0,50.0,0.0,,,1.0,14.0,59.0,0.958,-0.2229883239393205,8.0,0.3492982682288068,0.0036010130745238,0.3456972551542829
198,Exp1,d11032021,BcmPt,interference,1.0,1.0,6.0,57.0,33.0,Lewc1n.jpg,Kupc1n.jpg,68.0,31.0,1.0,,0.0,1.0,57.0,33.0,1.342,0.6265612392788622,37.0,0.7814198371716604,-0.817429967916898,1.5988498050885585
199,Exp1,d11032021,BcmPt,interference,0.0,1.0,7.0,22.0,2.0,Macb1n.jpg,Dekob1.jpg,40.0,44.0,0.0,,,0.0,2.0,22.0,1.999,2.080087445097472,-4.0,-0.4285205558683297,-0.2556719282911883,-0.1728486275771414
200,Exp1,d11032021,BcmPt,interference,1.0,1.0,8.0,30.0,13.0,Lasse1.jpg,Picak1.jpg,34.0,59.0,1.0,,1.0,0.0,13.0,30.0,1.855,1.7615063588906528,-25.0,-0.6877934972340419,0.3925104251230921,-1.080303922357134
201,Exp1,d11032021,BcmPt,interference,1.0,1.0,9.0,12.0,23.0,Kupkc1.jpg,Lewib1.jpg,34.0,69.0,1.0,,1.0,1.0,12.0,23.0,2.215,2.5579590744076985,-35.0,-0.6877934972340419,0.8246319940659458,-1.5124254912999875
202,Exp1,d11032021,BcmPt,interference,1.0,1.0,10.0,56.0,28.0,Luisc1.jpg,Krasa1.jpg,45.0,39.0,1.0,,0.0,1.0,56.0,28.0,1.66,1.3300944713189191,6.0,-0.2124597713969029,-0.4717327127626151,0.2592729413657121
203,Exp1,d11032021,BcmPt,interference,0.0,1.0,11.0,35.0,29.0,Wdeka1.jpg,Clifb1.jpg,61.0,56.0,0.0,,,0.0,29.0,35.0,1.55,1.0867339193553776,5.0,0.4789347389116629,0.262873954440236,0.2160607844714268
204,Exp1,d11032021,BcmPt,interference,0.0,1.0,12.0,53.0,24.0,Gorka1.jpg,Dekoa1.jpg,72.0,60.0,0.0,,,0.0,24.0,53.0,1.518,1.015938122420529,12.0,0.9542684647488018,0.4357225820173775,0.5185458827314242
205,Exp1,d11032021,BcmPt,interference,1.0,1.0,13.0,38.0,46.0,Lasc1n.jpg,Deka1n.jpg,31.0,58.0,1.0,,1.0,0.0,46.0,38.0,2.059,2.2128295643503124,-27.0,-0.817429967916898,0.3492982682288068,-1.1667282361457048
206,Exp1,d11032021,BcmPt,interference,0.0,1.0,14.0,17.0,1.0,Picab1.jpg,Lewia1.jpg,50.0,74.0,0.0,,,0.0,1.0,17.0,1.568,1.12655655513123,-24.0,0.0036010130745238,1.0406927785373723,-1.0370917654628486
207,Exp1,d11032021,BcmPt,interference,1.0,1.0,15.0,16.0,45.0,Lewa1n.jpg,Klia1n.jpg,50.0,50.0,1.0,,0.0,1.0,16.0,45.0,1.797,1.6331889769462395,0.0,0.0036010130745238,0.0036010130745238,0.0
208,Exp1,d11032021,BcmPt,interference,1.0,2.0,16.0,30.0,13.0,Lasse1.jpg,Picak1.jpg,34.0,59.0,0.0,,1.0,0.0,13.0,30.0,1.299,0.5314293871476592,-25.0,-0.6877934972340419,0.3925104251230921,-1.080303922357134
209,Exp1,d11032021,BcmPt,interference,0.0,2.0,17.0,14.0,59.0,Kupkb1.jpg,Kraa1n.jpg,58.0,50.0,1.0,,,0.0,59.0,14.0,0.669,-0.8623628650071712,8.0,0.3492982682288068,0.0036010130745238,0.3456972551542829
210,Exp1,d11032021,BcmPt,interference,1.0,2.0,18.0,12.0,23.0,Kupkc1.jpg,Lewib1.jpg,34.0,69.0,0.0,,1.0,1.0,12.0,23.0,0.891,-0.3712170237716595,-35.0,-0.6877934972340419,0.8246319940659458,-1.5124254912999875
211,Exp1,d11032021,BcmPt,interference,1.0,2.0,19.0,47.0,27.0,Kupkd1.jpg,Vinb1n.jpg,59.0,66.0,0.0,,1.0,1.0,47.0,27.0,1.004,-0.1212193658454756,-7.0,0.3925104251230921,0.6949955233830897,-0.3024850982599975
212,Exp1,d11032021,BcmPt,interference,0.0,2.0,20.0,53.0,24.0,Gorka1.jpg,Dekoa1.jpg,72.0,60.0,1.0,,,0.0,24.0,53.0,0.646,-0.9132473440540936,12.0,0.9542684647488018,0.4357225820173775,0.5185458827314242
213,Exp1,d11032021,BcmPt,interference,0.0,2.0,21.0,35.0,29.0,Wdeka1.jpg,Clifb1.jpg,61.0,56.0,1.0,,,0.0,29.0,35.0,0.808,-0.5548436220714228,5.0,0.4789347389116629,0.262873954440236,0.2160607844714268
214,Exp1,d11032021,BcmPt,interference,1.0,2.0,22.0,49.0,37.0,Hinda1.jpg,Mondb1.jpg,37.0,50.0,0.0,,0.0,1.0,49.0,37.0,0.977,-0.1809533195092541,-13.0,-0.5581570265511858,0.0036010130745238,-0.5617580396257097
215,Exp1,d11032021,BcmPt,interference,1.0,2.0,23.0,16.0,45.0,Lewa1n.jpg,Klia1n.jpg,50.0,50.0,0.0,,0.0,1.0,16.0,45.0,0.831,-0.5039591430245006,0.0,0.0036010130745238,0.0036010130745238,0.0
216,Exp1,d11032021,BcmPt,interference,0.0,2.0,24.0,22.0,2.0,Macb1n.jpg,Dekob1.jpg,40.0,44.0,1.0,,,0.0,2.0,22.0,0.716,-0.7583815382591126,-4.0,-0.4285205558683297,-0.2556719282911883,-0.1728486275771414
217,Exp1,d11032021,BcmPt,interference,1.0,2.0,25.0,38.0,46.0,Lasc1n.jpg,Deka1n.jpg,31.0,58.0,0.0,,1.0,0.0,46.0,38.0,1.445,0.854435210662906,-27.0,-0.817429967916898,0.3492982682288068,-1.1667282361457048
218,Exp1,d11032021,BcmPt,interference,1.0,2.0,26.0,56.0,28.0,Luisc1.jpg,Krasa1.jpg,45.0,39.0,0.0,,0.0,1.0,56.0,28.0,0.786,-0.6035157324641313,6.0,-0.2124597713969029,-0.4717327127626151,0.2592729413657121
219,Exp1,d11032021,BcmPt,interference,0.0,2.0,27.0,8.0,15.0,Klina1.jpg,Clia1n.jpg,60.0,33.0,1.0,,,0.0,15.0,8.0,0.8,-0.572542571305135,27.0,0.4357225820173775,-0.7310056541283273,1.1667282361457048
220,Exp1,d11032021,BcmPt,interference,1.0,2.0,28.0,57.0,33.0,Lewc1n.jpg,Kupc1n.jpg,68.0,31.0,0.0,,0.0,1.0,57.0,33.0,0.867,-0.424313871472796,37.0,0.7814198371716604,-0.817429967916898,1.5988498050885585
221,Exp1,d11032021,BcmPt,interference,0.0,2.0,29.0,5.0,19.0,Kupb1n.jpg,Macc1n.jpg,62.0,58.0,1.0,,,0.0,19.0,5.0,1.004,-0.1212193658454756,4.0,0.5221468958059482,0.3492982682288068,0.1728486275771414
222,Exp1,d11032021,BcmPt,interference,0.0,2.0,30.0,17.0,1.0,Picab1.jpg,Lewia1.jpg,50.0,74.0,1.0,,,0.0,1.0,17.0,1.327,0.5933757094656517,-24.0,0.0036010130745238,1.0406927785373723,-1.0370917654628486
223,Exp1,d11032021,BcmPt,interference,0.0,2.0,31.0,42.0,40.0,Picc1n.jpg,Krab1n.jpg,38.0,61.0,1.0,,,1.0,42.0,40.0,0.804,-0.5636930966882789,-23.0,-0.5149448696569005,0.4789347389116629,-0.9938796085685632
224,Exp1,d11032021,BcmPt,interference,0.0,3.0,32.0,42.0,40.0,Picc1n.jpg,Krab1n.jpg,38.0,61.0,0.0,,,1.0,42.0,40.0,0.686,-0.8247525978855329,-23.0,-0.5149448696569005,0.4789347389116629,-0.9938796085685632
225,Exp1,d11032021,BcmPt,interference,1.0,3.0,33.0,57.0,33.0,Lewc1n.jpg,Kupc1n.jpg,68.0,31.0,0.0,,0.0,1.0,57.0,33.0,0.674,-0.8513010217361011,37.0,0.7814198371716604,-0.817429967916898,1.5988498050885585
226,Exp1,d11032021,BcmPt,interference,0.0,3.0,34.0,22.0,2.0,Macb1n.jpg,Dekob1.jpg,40.0,44.0,0.0,,,0.0,2.0,22.0,0.624,-0.961919454446802,-4.0,-0.4285205558683297,-0.2556719282911883,-0.1728486275771414
227,Exp1,d11032021,BcmPt,interference,1.0,3.0,35.0,30.0,13.0,Lasse1.jpg,Picak1.jpg,34.0,59.0,0.0,,1.0,0.0,13.0,30.0,0.748,-0.687585741324264,-25.0,-0.6877934972340419,0.3925104251230921,-1.080303922357134
228,Exp1,d11032021,BcmPt,interference,1.0,3.0,36.0,38.0,46.0,Lasc1n.jpg,Deka1n.jpg,31.0,58.0,0.0,,1.0,0.0,46.0,38.0,0.623,-0.964131823101016,-27.0,-0.817429967916898,0.3492982682288068,-1.1667282361457048
229,Exp1,d11032021,BcmPt,interference,0.0,3.0,37.0,5.0,19.0,Kupb1n.jpg,Macc1n.jpg,62.0,58.0,0.0,,,0.0,19.0,5.0,0.861,-0.4375880833980801,4.0,0.5221468958059482,0.3492982682288068,0.1728486275771414
230,Exp1,d11032021,BcmPt,interference,0.0,3.0,38.0,35.0,29.0,Wdeka1.jpg,Clifb1.jpg,61.0,56.0,0.0,,,0.0,29.0,35.0,0.574,-1.072537887157503,5.0,0.4789347389116629,0.262873954440236,0.2160607844714268
231,Exp1,d11032021,BcmPt,interference,0.0,3.0,39.0,17.0,1.0,Picab1.jpg,Lewia1.jpg,50.0,74.0,0.0,,,0.0,1.0,17.0,0.56,-1.103511048316499,-24.0,0.0036010130745238,1.0406927785373723,-1.0370917654628486
232,Exp1,d11032021,BcmPt,interference,1.0,3.0,40.0,16.0,45.0,Lewa1n.jpg,Klia1n.jpg,50.0,50.0,0.0,,0.0,1.0,16.0,45.0,0.432,-1.3866942360558934,0.0,0.0036010130745238,0.0036010130745238,0.0
233,Exp1,d11032021,BcmPt,interference,0.0,3.0,41.0,14.0,59.0,Kupkb1.jpg,Kraa1n.jpg,58.0,50.0,0.0,,,0.0,59.0,14.0,0.538,-1.1521831587092075,8.0,0.3492982682288068,0.0036010130745238,0.3456972551542829
234,Exp1,d11032021,BcmPt,interference,0.0,3.0,42.0,53.0,24.0,Gorka1.jpg,Dekoa1.jpg,72.0,60.0,0.0,,,0.0,24.0,53.0,0.695,-0.804841279997607,12.0,0.9542684647488018,0.4357225820173775,0.5185458827314242
235,Exp1,d11032021,BcmPt,interference,1.0,3.0,43.0,49.0,37.0,Hinda1.jpg,Mondb1.jpg,37.0,50.0,0.0,,0.0,0.0,37.0,49.0,0.936,-0.2716604343320287,-13.0,-0.5581570265511858,0.0036010130745238,-0.5617580396257097
236,Exp1,d11032021,BcmPt,interference,1.0,3.0,44.0,56.0,28.0,Luisc1.jpg,Krasa1.jpg,45.0,39.0,0.0,,0.0,1.0,56.0,28.0,0.82,-0.5282951982208549,6.0,-0.2124597713969029,-0.4717327127626151,0.2592729413657121
237,Exp1,d11032021,BcmPt,interference,1.0,3.0,45.0,47.0,27.0,Kupkd1.jpg,Vinb1n.jpg,59.0,66.0,0.0,,1.0,1.0,47.0,27.0,1.404,0.7637280958401309,-7.0,0.3925104251230921,0.6949955233830897,-0.3024850982599975
238,Exp1,d11032021,BcmPt,interference,1.0,3.0,46.0,12.0,23.0,Kupkc1.jpg,Lewib1.jpg,34.0,69.0,0.0,,1.0,1.0,12.0,23.0,0.71,-0.7716557501843967,-35.0,-0.6877934972340419,0.8246319940659458,-1.5124254912999875
239,Exp1,d11032021,BcmPt,interference,0.0,3.0,47.0,8.0,15.0,Klina1.jpg,Clia1n.jpg,60.0,33.0,0.0,,,0.0,15.0,8.0,0.778,-0.6212146816978434,27.0,0.4357225820173775,-0.7310056541283273,1.1667282361457048
240,Exp1,d11032021,8gPGn,interference,1.0,1.0,0.0,9.0,28.0,Lassc1.jpg,Krasa1.jpg,74.0,63.0,1.0,,1.0,0.0,28.0,9.0,1.004,-0.3763257976049203,11.0,0.8585009530444964,0.4924734149247498,0.3660275381197465
241,Exp1,d11032021,8gPGn,interference,1.0,1.0,1.0,21.0,47.0,Lewb1n.jpg,Kupkd1.jpg,21.0,27.0,1.0,,0.0,1.0,21.0,47.0,2.894,2.153895528913892,-6.0,-0.9050862760779188,-0.7054348916489662,-0.1996513844289525
242,Exp1,d11032021,8gPGn,interference,0.0,1.0,2.0,12.0,55.0,Kupkc1.jpg,Lewic1.jpg,35.0,73.0,0.0,,,0.0,55.0,12.0,1.642,0.477791242775504,-38.0,-0.439233045743696,0.8252257223063376,-1.2644587680500337
243,Exp1,d11032021,8gPGn,interference,1.0,1.0,3.0,39.0,6.0,Dekb1n.jpg,Wdekc1.jpg,74.0,36.0,1.0,,1.0,1.0,39.0,6.0,2.59,1.746918130362718,38.0,0.8585009530444964,-0.4059578150055372,1.2644587680500337
244,Exp1,d11032021,8gPGn,interference,0.0,1.0,4.0,35.0,34.0,Wdeka1.jpg,Monb1n.jpg,29.0,19.0,0.0,,,1.0,35.0,34.0,1.413,0.1712194524195211,10.0,-0.6388844301726486,-0.9716367375542364,0.3327523073815878
245,Exp1,d11032021,8gPGn,interference,0.0,1.0,5.0,10.0,40.0,Stera1.jpg,Krab1n.jpg,37.0,68.0,0.0,,,0.0,40.0,10.0,1.123,-0.2170155659352172,-31.0,-0.3726825842673784,0.6588495686155437,-1.0315321528829222
246,Exp1,d11032021,8gPGn,interference,0.0,1.0,6.0,1.0,24.0,Lewia1.jpg,Dekoa1.jpg,43.0,70.0,0.0,,,0.0,24.0,1.0,0.984,-0.4031006264569712,-27.0,-0.1730311998384257,0.7254000300918613,-0.898431229930287
247,Exp1,d11032021,8gPGn,interference,1.0,1.0,7.0,25.0,15.0,Clifa1.jpg,Clia1n.jpg,21.0,68.0,1.0,,1.0,0.0,15.0,25.0,1.3,0.0199416694054334,-47.0,-0.9050862760779188,0.6588495686155437,-1.5639358446934626
248,Exp1,d11032021,8gPGn,interference,0.0,1.0,8.0,33.0,42.0,Kupc1n.jpg,Picc1n.jpg,35.0,68.0,0.0,,,0.0,42.0,33.0,0.893,-0.5249260977338028,-33.0,-0.439233045743696,0.6588495686155437,-1.0980826143592397
249,Exp1,d11032021,8gPGn,interference,1.0,1.0,9.0,14.0,51.0,Kupkb1.jpg,Gora1n.jpg,65.0,38.0,1.0,,0.0,1.0,14.0,51.0,0.994,-0.3897132120309457,27.0,0.5590238764010674,-0.3394073535292196,0.898431229930287
250,Exp1,d11032021,8gPGn,interference,1.0,1.0,10.0,27.0,19.0,Vinb1n.jpg,Macc1n.jpg,72.0,39.0,1.0,,0.0,1.0,27.0,19.0,3.399,2.829959957428178,33.0,0.7919504915681789,-0.3061321227910608,1.0980826143592397
251,Exp1,d11032021,8gPGn,interference,1.0,1.0,11.0,38.0,52.0,Lasc1n.jpg,Picaa1.jpg,31.0,71.0,1.0,,0.0,0.0,52.0,38.0,3.835,3.413651226402888,-40.0,-0.5723339686963311,0.75867526083002,-1.3310092295263511
252,Exp1,d11032021,8gPGn,interference,0.0,1.0,12.0,22.0,5.0,Macb1n.jpg,Kupb1n.jpg,34.0,71.0,0.0,,,0.0,5.0,22.0,1.659,0.5005498472997475,-37.0,-0.4725082764818547,0.75867526083002,-1.231183537311875
253,Exp1,d11032021,8gPGn,interference,0.0,1.0,13.0,57.0,3.0,Lewc1n.jpg,Fogeg1.jpg,40.0,74.0,0.0,,,0.0,3.0,57.0,0.905,-0.5088612004225723,-34.0,-0.2728568920529021,0.8585009530444964,-1.1313578450973985
254,Exp1,d11032021,8gPGn,interference,1.0,1.0,14.0,45.0,43.0,Klia1n.jpg,Picac1.jpg,73.0,68.0,1.0,,1.0,0.0,43.0,45.0,1.04,-0.3281311056712285,5.0,0.8252257223063376,0.6588495686155437,0.1663761536907939
255,Exp1,d11032021,8gPGn,interference,0.0,1.0,15.0,41.0,54.0,Vincb1.jpg,Kupka1.jpg,29.0,71.0,0.0,,,1.0,41.0,54.0,0.034,-1.67490499692939,-42.0,-0.6388844301726486,0.75867526083002,-1.3975596910026686
256,Exp1,d11032021,8gPGn,interference,0.0,2.0,16.0,41.0,54.0,Vincb1.jpg,Kupka1.jpg,29.0,71.0,1.0,,,0.0,54.0,41.0,3.212,2.579615307661502,-42.0,-0.6388844301726486,0.75867526083002,-1.3975596910026686
257,Exp1,d11032021,8gPGn,interference,0.0,2.0,17.0,22.0,5.0,Macb1n.jpg,Kupb1n.jpg,34.0,71.0,1.0,,,0.0,5.0,22.0,1.057,-0.3053725011469854,-37.0,-0.4725082764818547,0.75867526083002,-1.231183537311875
258,Exp1,d11032021,8gPGn,interference,1.0,2.0,18.0,9.0,28.0,Lassc1.jpg,Krasa1.jpg,74.0,63.0,0.0,,1.0,0.0,28.0,9.0,1.304,0.0252966351758436,11.0,0.8585009530444964,0.4924734149247498,0.3660275381197465
259,Exp1,d11032021,8gPGn,interference,0.0,2.0,19.0,10.0,40.0,Stera1.jpg,Krab1n.jpg,37.0,68.0,1.0,,,0.0,40.0,10.0,1.137,-0.1982731857387816,-31.0,-0.3726825842673784,0.6588495686155437,-1.0315321528829222
260,Exp1,d11032021,8gPGn,interference,1.0,2.0,20.0,27.0,19.0,Vinb1n.jpg,Macc1n.jpg,72.0,39.0,0.0,,0.0,1.0,27.0,19.0,2.196,1.219454001977315,33.0,0.7919504915681789,-0.3061321227910608,1.0980826143592397
261,Exp1,d11032021,8gPGn,interference,0.0,2.0,21.0,1.0,24.0,Lewia1.jpg,Dekoa1.jpg,43.0,70.0,1.0,,,0.0,24.0,1.0,0.716,-0.7618833330744537,-27.0,-0.1730311998384257,0.7254000300918613,-0.898431229930287
262,Exp1,d11032021,8gPGn,interference,1.0,2.0,22.0,39.0,6.0,Dekb1n.jpg,Wdekc1.jpg,74.0,36.0,0.0,,1.0,1.0,39.0,6.0,1.055,-0.3080499840321905,38.0,0.8585009530444964,-0.4059578150055372,1.2644587680500337
263,Exp1,d11032021,8gPGn,interference,0.0,2.0,23.0,35.0,34.0,Wdeka1.jpg,Monb1n.jpg,29.0,19.0,1.0,,,1.0,35.0,34.0,1.252,-0.0443179198394888,10.0,-0.6388844301726486,-0.9716367375542364,0.3327523073815878
264,Exp1,d11032021,8gPGn,interference,1.0,2.0,24.0,25.0,15.0,Clifa1.jpg,Clia1n.jpg,21.0,68.0,0.0,,1.0,0.0,15.0,25.0,1.333,0.0641201370113173,-47.0,-0.9050862760779188,0.6588495686155437,-1.5639358446934626
265,Exp1,d11032021,8gPGn,interference,1.0,2.0,25.0,14.0,51.0,Kupkb1.jpg,Gora1n.jpg,65.0,38.0,0.0,,0.0,1.0,14.0,51.0,0.822,-0.6199767401585837,27.0,0.5590238764010674,-0.3394073535292196,0.898431229930287
266,Exp1,d11032021,8gPGn,interference,0.0,2.0,26.0,12.0,55.0,Kupkc1.jpg,Lewic1.jpg,35.0,73.0,1.0,,,0.0,55.0,12.0,0.969,-0.4231817480960094,-38.0,-0.439233045743696,0.8252257223063376,-1.2644587680500337
267,Exp1,d11032021,8gPGn,interference,0.0,2.0,27.0,33.0,42.0,Kupc1n.jpg,Picc1n.jpg,35.0,68.0,1.0,,,0.0,42.0,33.0,0.781,-0.674865139305288,-33.0,-0.439233045743696,0.6588495686155437,-1.0980826143592397
268,Exp1,d11032021,8gPGn,interference,1.0,2.0,28.0,21.0,47.0,Lewb1n.jpg,Kupkd1.jpg,21.0,27.0,0.0,,0.0,1.0,21.0,47.0,1.277,-0.0108493837744252,-6.0,-0.9050862760779188,-0.7054348916489662,-0.1996513844289525
269,Exp1,d11032021,8gPGn,interference,1.0,2.0,29.0,45.0,43.0,Klia1n.jpg,Picac1.jpg,73.0,68.0,0.0,,1.0,0.0,43.0,45.0,0.823,-0.6186379987159812,5.0,0.8252257223063376,0.6588495686155437,0.1663761536907939
270,Exp1,d11032021,8gPGn,interference,0.0,2.0,30.0,57.0,3.0,Lewc1n.jpg,Fogeg1.jpg,40.0,74.0,1.0,,,0.0,3.0,57.0,0.787,-0.6668326906496728,-34.0,-0.2728568920529021,0.8585009530444964,-1.1313578450973985
271,Exp1,d11032021,8gPGn,interference,1.0,2.0,31.0,38.0,52.0,Lasc1n.jpg,Picaa1.jpg,31.0,71.0,0.0,,0.0,0.0,52.0,38.0,1.22,-0.0871576460027703,-40.0,-0.5723339686963311,0.75867526083002,-1.3310092295263511
272,Exp1,d11032021,8gPGn,interference,1.0,3.0,32.0,21.0,47.0,Lewb1n.jpg,Kupkd1.jpg,21.0,27.0,0.0,,0.0,1.0,21.0,47.0,1.963,0.9075272458509216,-6.0,-0.9050862760779188,-0.7054348916489662,-0.1996513844289525
273,Exp1,d11032021,8gPGn,interference,1.0,3.0,33.0,25.0,15.0,Clifa1.jpg,Clia1n.jpg,21.0,68.0,0.0,,1.0,0.0,15.0,25.0,1.008,-0.3709708318345101,-47.0,-0.9050862760779188,0.6588495686155437,-1.5639358446934626
274,Exp1,d11032021,8gPGn,interference,1.0,3.0,34.0,27.0,19.0,Vinb1n.jpg,Macc1n.jpg,72.0,39.0,0.0,,0.0,1.0,27.0,19.0,0.978,-0.4111330751125865,33.0,0.7919504915681789,-0.3061321227910608,1.0980826143592397
275,Exp1,d11032021,8gPGn,interference,0.0,3.0,35.0,22.0,5.0,Macb1n.jpg,Kupb1n.jpg,34.0,71.0,0.0,,,0.0,5.0,22.0,0.792,-0.66013898343666,-37.0,-0.4725082764818547,0.75867526083002,-1.231183537311875
276,Exp1,d11032021,8gPGn,interference,1.0,3.0,36.0,45.0,43.0,Klia1n.jpg,Picac1.jpg,73.0,68.0,0.0,,1.0,0.0,43.0,45.0,0.72,-0.7565283673040434,5.0,0.8252257223063376,0.6588495686155437,0.1663761536907939
277,Exp1,d11032021,8gPGn,interference,1.0,3.0,37.0,9.0,28.0,Lassc1.jpg,Krasa1.jpg,74.0,63.0,0.0,,1.0,0.0,28.0,9.0,1.175,-0.1474010109198848,11.0,0.8585009530444964,0.4924734149247498,0.3660275381197465
278,Exp1,d11032021,8gPGn,interference,0.0,3.0,38.0,12.0,55.0,Kupkc1.jpg,Lewic1.jpg,35.0,73.0,0.0,,,0.0,55.0,12.0,0.981,-0.4071168507847789,-38.0,-0.439233045743696,0.8252257223063376,-1.2644587680500337
279,Exp1,d11032021,8gPGn,interference,1.0,3.0,39.0,38.0,52.0,Lasc1n.jpg,Picaa1.jpg,31.0,71.0,0.0,,0.0,0.0,52.0,38.0,0.979,-0.4097943336699839,-40.0,-0.5723339686963311,0.75867526083002,-1.3310092295263511
280,Exp1,d11032021,8gPGn,interference,0.0,3.0,40.0,1.0,24.0,Lewia1.jpg,Dekoa1.jpg,43.0,70.0,0.0,,,0.0,24.0,1.0,0.854,-0.5771370139953023,-27.0,-0.1730311998384257,0.7254000300918613,-0.898431229930287
281,Exp1,d11032021,8gPGn,interference,0.0,3.0,41.0,10.0,40.0,Stera1.jpg,Krab1n.jpg,37.0,68.0,0.0,,,0.0,40.0,10.0,0.944,-0.4566502841610731,-31.0,-0.3726825842673784,0.6588495686155437,-1.0315321528829222
282,Exp1,d11032021,8gPGn,interference,1.0,3.0,42.0,39.0,6.0,Dekb1n.jpg,Wdekc1.jpg,74.0,36.0,0.0,,1.0,1.0,39.0,6.0,0.9,-0.5155549076355851,38.0,0.8585009530444964,-0.4059578150055372,1.2644587680500337
283,Exp1,d11032021,8gPGn,interference,1.0,3.0,43.0,14.0,51.0,Kupkb1.jpg,Gora1n.jpg,65.0,38.0,0.0,,0.0,1.0,14.0,51.0,0.892,-0.5262648391764054,27.0,0.5590238764010674,-0.3394073535292196,0.898431229930287
284,Exp1,d11032021,8gPGn,interference,0.0,3.0,44.0,57.0,3.0,Lewc1n.jpg,Fogeg1.jpg,40.0,74.0,0.0,,,0.0,3.0,57.0,0.847,-0.5865082040935201,-34.0,-0.2728568920529021,0.8585009530444964,-1.1313578450973985
285,Exp1,d11032021,8gPGn,interference,0.0,3.0,45.0,41.0,54.0,Vincb1.jpg,Kupka1.jpg,29.0,71.0,0.0,,,0.0,54.0,41.0,0.956,-0.4405853868498425,-42.0,-0.6388844301726486,0.75867526083002,-1.3975596910026686
286,Exp1,d11032021,8gPGn,interference,0.0,3.0,46.0,33.0,42.0,Kupc1n.jpg,Picc1n.jpg,35.0,68.0,0.0,,,0.0,42.0,33.0,0.957,-0.43924664540724,-33.0,-0.439233045743696,0.6588495686155437,-1.0980826143592397
287,Exp1,d11032021,8gPGn,interference,0.0,3.0,47.0,35.0,34.0,Wdeka1.jpg,Monb1n.jpg,29.0,19.0,0.0,,,1.0,35.0,34.0,1.089,-0.2625327749837038,10.0,-0.6388844301726486,-0.9716367375542364,0.3327523073815878
288,Exp1,d11042021,339Ys,interference,0.0,1.0,0.0,53.0,48.0,Gorka1.jpg,Picb1n.jpg,90.0,76.0,0.0,,,1.0,53.0,48.0,2.422,-0.2451732558859389,14.0,1.0614295787810764,0.6154061439756217,0.4460234348054547
289,Exp1,d11042021,339Ys,interference,1.0,1.0,1.0,47.0,33.0,Kupkd1.jpg,Kupc1n.jpg,78.0,40.0,1.0,,0.0,1.0,47.0,33.0,2.992,0.1133292443032176,38.0,0.679123777519258,-0.5315112598098335,1.2106350373290915
290,Exp1,d11042021,339Ys,interference,1.0,1.0,2.0,52.0,1.0,Picaa1.jpg,Lewia1.jpg,79.0,87.0,1.0,,1.0,0.0,1.0,52.0,4.356,0.9712194377383222,-8.0,0.7109825942910762,0.9658531284656218,-0.2548705341745455
291,Exp1,d11042021,339Ys,interference,0.0,1.0,3.0,12.0,17.0,Kupkc1.jpg,Picab1.jpg,22.0,37.0,0.0,,,1.0,12.0,17.0,2.647,-0.1036591110744299,-15.0,-1.104969961702561,-0.6270877101252881,-0.4778822515772729
292,Exp1,d11042021,339Ys,interference,0.0,1.0,4.0,45.0,58.0,Klia1n.jpg,Mackc1.jpg,61.0,58.0,0.0,,,0.0,58.0,45.0,2.161,-0.4093296638672897,3.0,0.1375238923983486,0.041947442082894,0.0955764503154546
293,Exp1,d11042021,339Ys,interference,0.0,1.0,5.0,10.0,59.0,Stera1.jpg,Kraa1n.jpg,39.0,68.0,0.0,,,0.0,59.0,10.0,2.014,-0.5017855718108092,-29.0,-0.5633700765816517,0.360535609801076,-0.9239056863827276
294,Exp1,d11042021,339Ys,interference,0.0,1.0,6.0,29.0,4.0,Clifb1.jpg,Mackb1.jpg,21.0,72.0,0.0,,,1.0,29.0,4.0,2.381,-0.2709602778293697,-51.0,-1.1368287784743791,0.4879708768883488,-1.624799655362728
295,Exp1,d11042021,339Ys,interference,1.0,1.0,7.0,15.0,7.0,Clia1n.jpg,Pica1n.jpg,66.0,81.0,1.0,,1.0,1.0,15.0,7.0,6.702,2.446740254306325,-15.0,0.2968179762574396,0.7747002278347126,-0.4778822515772729
296,Exp1,d11042021,339Ys,interference,1.0,1.0,8.0,22.0,51.0,Macb1n.jpg,Gora1n.jpg,83.0,78.0,1.0,,0.0,1.0,22.0,51.0,3.614,0.5045372357377008,5.0,0.838417861378349,0.679123777519258,0.1592940838590909
297,Exp1,d11042021,339Ys,interference,1.0,1.0,9.0,25.0,54.0,Clifa1.jpg,Kupka1.jpg,62.0,67.0,1.0,,1.0,0.0,54.0,25.0,6.208,2.1360380874757228,-5.0,0.1693827091701668,0.3286767930292578,-0.159294083859091
298,Exp1,d11042021,339Ys,interference,0.0,1.0,10.0,43.0,44.0,Picac1.jpg,Lassf1.jpg,63.0,72.0,0.0,,,1.0,43.0,44.0,2.485,-0.2055492953387165,-9.0,0.201241525941985,0.4879708768883488,-0.2867293509463637
299,Exp1,d11042021,339Ys,interference,0.0,1.0,11.0,0.0,27.0,Gorkc1.jpg,Vinb1n.jpg,31.0,90.0,0.0,,,0.0,27.0,0.0,1.61,-0.7558820807168077,-59.0,-0.8182406107561973,1.0614295787810764,-1.8796701895372736
300,Exp1,d11042021,339Ys,interference,1.0,1.0,12.0,46.0,37.0,Deka1n.jpg,Mondb1.jpg,37.0,61.0,1.0,,0.0,0.0,37.0,46.0,4.803,1.2523608720971873,-24.0,-0.6270877101252881,0.1375238923983486,-0.7646116025236367
301,Exp1,d11042021,339Ys,interference,1.0,1.0,13.0,2.0,55.0,Dekob1.jpg,Lewic1.jpg,17.0,78.0,1.0,,1.0,0.0,55.0,2.0,7.672,3.0568234563826087,-61.0,-1.264264045561652,0.679123777519258,-1.94338782308091
302,Exp1,d11042021,339Ys,interference,1.0,1.0,14.0,13.0,34.0,Picak1.jpg,Monb1n.jpg,83.0,70.0,1.0,,0.0,1.0,13.0,34.0,5.084,1.429096315172894,13.0,0.838417861378349,0.4242532433447124,0.4141646180336365
303,Exp1,d11042021,339Ys,interference,0.0,1.0,15.0,42.0,32.0,Picc1n.jpg,Macka1.jpg,36.0,32.0,0.0,,,0.0,32.0,42.0,2.237,-0.3615293305087354,4.0,-0.6589465268971063,-0.786381793984379,0.1274352670872727
304,Exp1,d11042021,339Ys,interference,0.0,2.0,16.0,43.0,44.0,Picac1.jpg,Lassf1.jpg,63.0,72.0,1.0,,,1.0,43.0,44.0,1.127,-1.0596657782455143,-9.0,0.201241525941985,0.4879708768883488,-0.2867293509463637
305,Exp1,d11042021,339Ys,interference,1.0,2.0,17.0,2.0,55.0,Dekob1.jpg,Lewic1.jpg,17.0,78.0,0.0,,1.0,0.0,55.0,2.0,3.636,0.5183741743414929,-61.0,-1.264264045561652,0.679123777519258,-1.94338782308091
306,Exp1,d11042021,339Ys,interference,1.0,2.0,18.0,15.0,7.0,Clia1n.jpg,Pica1n.jpg,66.0,81.0,0.0,,1.0,1.0,15.0,7.0,3.965,0.7252993016436551,-15.0,0.2968179762574396,0.7747002278347126,-0.4778822515772729
307,Exp1,d11042021,339Ys,interference,1.0,2.0,19.0,46.0,37.0,Deka1n.jpg,Mondb1.jpg,37.0,61.0,0.0,,0.0,0.0,37.0,46.0,3.112,0.1888034548693559,-24.0,-0.6270877101252881,0.1375238923983486,-0.7646116025236367
308,Exp1,d11042021,339Ys,interference,0.0,2.0,20.0,53.0,48.0,Gorka1.jpg,Picb1n.jpg,90.0,76.0,1.0,,,1.0,53.0,48.0,3.96,0.7221545428700661,14.0,1.0614295787810764,0.6154061439756217,0.4460234348054547
309,Exp1,d11042021,339Ys,interference,0.0,2.0,21.0,42.0,32.0,Picc1n.jpg,Macka1.jpg,36.0,32.0,1.0,,,0.0,32.0,42.0,2.289,-0.3288238392634088,4.0,-0.6589465268971063,-0.786381793984379,0.1274352670872727
310,Exp1,d11042021,339Ys,interference,0.0,2.0,22.0,12.0,17.0,Kupkc1.jpg,Picab1.jpg,22.0,37.0,1.0,,,1.0,12.0,17.0,3.584,0.4856686830961663,-15.0,-1.104969961702561,-0.6270877101252881,-0.4778822515772729
311,Exp1,d11042021,339Ys,interference,1.0,2.0,23.0,25.0,54.0,Clifa1.jpg,Kupka1.jpg,62.0,67.0,0.0,,1.0,0.0,54.0,25.0,3.066,0.1598716741523361,-5.0,0.1693827091701668,0.3286767930292578,-0.159294083859091
312,Exp1,d11042021,339Ys,interference,0.0,2.0,24.0,29.0,4.0,Clifb1.jpg,Mackb1.jpg,21.0,72.0,1.0,,,1.0,29.0,4.0,6.363,2.2335256094569846,-51.0,-1.1368287784743791,0.4879708768883488,-1.624799655362728
313,Exp1,d11042021,339Ys,interference,1.0,2.0,25.0,22.0,51.0,Macb1n.jpg,Gora1n.jpg,83.0,78.0,0.0,,0.0,1.0,22.0,51.0,2.958,0.0919448846428119,5.0,0.838417861378349,0.679123777519258,0.1592940838590909
314,Exp1,d11042021,339Ys,interference,1.0,2.0,26.0,52.0,1.0,Picaa1.jpg,Lewia1.jpg,79.0,87.0,0.0,,1.0,0.0,1.0,52.0,3.4,0.3699415602280876,-8.0,0.7109825942910762,0.9658531284656218,-0.2548705341745455
315,Exp1,d11042021,339Ys,interference,0.0,2.0,27.0,45.0,58.0,Klia1n.jpg,Mackc1.jpg,61.0,58.0,1.0,,,0.0,58.0,45.0,3.858,0.6580014638888486,3.0,0.1375238923983486,0.041947442082894,0.0955764503154546
316,Exp1,d11042021,339Ys,interference,0.0,2.0,28.0,10.0,59.0,Stera1.jpg,Kraa1n.jpg,39.0,68.0,1.0,,,0.0,59.0,10.0,3.145,0.2095588627750439,-29.0,-0.5633700765816517,0.360535609801076,-0.9239056863827276
317,Exp1,d11042021,339Ys,interference,1.0,2.0,29.0,13.0,34.0,Picak1.jpg,Monb1n.jpg,83.0,70.0,0.0,,0.0,1.0,13.0,34.0,2.214,-0.3759952208672453,13.0,0.838417861378349,0.4242532433447124,0.4141646180336365
318,Exp1,d11042021,339Ys,interference,0.0,2.0,30.0,0.0,27.0,Gorkc1.jpg,Vinb1n.jpg,31.0,90.0,1.0,,,0.0,27.0,0.0,2.81,-0.0011399750554253,-59.0,-0.8182406107561973,1.0614295787810764,-1.8796701895372736
319,Exp1,d11042021,339Ys,interference,1.0,2.0,31.0,47.0,33.0,Kupkd1.jpg,Kupc1n.jpg,78.0,40.0,0.0,,0.0,1.0,47.0,33.0,2.815,0.0020047837181636,38.0,0.679123777519258,-0.5315112598098335,1.2106350373290915
320,Exp1,d11042021,339Ys,interference,1.0,3.0,32.0,46.0,37.0,Deka1n.jpg,Mondb1.jpg,37.0,61.0,0.0,,0.0,0.0,37.0,46.0,2.424,-0.2439153523765034,-24.0,-0.6270877101252881,0.1375238923983486,-0.7646116025236367
321,Exp1,d11042021,339Ys,interference,0.0,3.0,33.0,43.0,44.0,Picac1.jpg,Lassf1.jpg,63.0,72.0,0.0,,,1.0,43.0,44.0,1.912,-0.5659386507920267,-9.0,0.201241525941985,0.4879708768883488,-0.2867293509463637
322,Exp1,d11042021,339Ys,interference,0.0,3.0,34.0,29.0,4.0,Clifb1.jpg,Mackb1.jpg,21.0,72.0,0.0,,,1.0,29.0,4.0,1.172,-1.0313629492832124,-51.0,-1.1368287784743791,0.4879708768883488,-1.624799655362728
323,Exp1,d11042021,339Ys,interference,1.0,3.0,35.0,47.0,33.0,Kupkd1.jpg,Kupc1n.jpg,78.0,40.0,0.0,,0.0,1.0,47.0,33.0,1.255,-0.9791599536416336,38.0,0.679123777519258,-0.5315112598098335,1.2106350373290915
324,Exp1,d11042021,339Ys,interference,0.0,3.0,36.0,0.0,27.0,Gorkc1.jpg,Vinb1n.jpg,31.0,90.0,0.0,,,0.0,27.0,0.0,1.314,-0.9420518001132822,-59.0,-0.8182406107561973,1.0614295787810764,-1.8796701895372736
325,Exp1,d11042021,339Ys,interference,0.0,3.0,37.0,12.0,17.0,Kupkc1.jpg,Picab1.jpg,22.0,37.0,0.0,,,1.0,12.0,17.0,1.39,-0.894251466754728,-15.0,-1.104969961702561,-0.6270877101252881,-0.4778822515772729
326,Exp1,d11042021,339Ys,interference,1.0,3.0,38.0,13.0,34.0,Picak1.jpg,Monb1n.jpg,83.0,70.0,0.0,,0.0,1.0,13.0,34.0,1.374,-0.904314694830213,13.0,0.838417861378349,0.4242532433447124,0.4141646180336365
327,Exp1,d11042021,339Ys,interference,1.0,3.0,39.0,15.0,7.0,Clia1n.jpg,Pica1n.jpg,66.0,81.0,0.0,,1.0,1.0,15.0,7.0,1.289,-0.9577755939812276,-15.0,0.2968179762574396,0.7747002278347126,-0.4778822515772729
328,Exp1,d11042021,339Ys,interference,1.0,3.0,40.0,22.0,51.0,Macb1n.jpg,Gora1n.jpg,83.0,78.0,0.0,,0.0,1.0,22.0,51.0,1.85,-0.6049336595845313,5.0,0.838417861378349,0.679123777519258,0.1592940838590909
329,Exp1,d11042021,339Ys,interference,0.0,3.0,41.0,10.0,59.0,Stera1.jpg,Kraa1n.jpg,39.0,68.0,0.0,,,0.0,59.0,10.0,1.702,-0.6980185192827685,-29.0,-0.5633700765816517,0.360535609801076,-0.9239056863827276
330,Exp1,d11042021,339Ys,interference,0.0,3.0,42.0,45.0,58.0,Klia1n.jpg,Mackc1.jpg,61.0,58.0,0.0,,,0.0,58.0,45.0,1.358,-0.914377922905698,3.0,0.1375238923983486,0.041947442082894,0.0955764503154546
331,Exp1,d11042021,339Ys,interference,1.0,3.0,43.0,25.0,54.0,Clifa1.jpg,Kupka1.jpg,62.0,67.0,0.0,,1.0,0.0,54.0,25.0,1.028,-1.1219320019625785,-5.0,0.1693827091701668,0.3286767930292578,-0.159294083859091
332,Exp1,d11042021,339Ys,interference,0.0,3.0,44.0,53.0,48.0,Gorka1.jpg,Picb1n.jpg,90.0,76.0,0.0,,,1.0,53.0,48.0,1.314,-0.9420518001132822,14.0,1.0614295787810764,0.6154061439756217,0.4460234348054547
333,Exp1,d11042021,339Ys,interference,1.0,3.0,45.0,52.0,1.0,Picaa1.jpg,Lewia1.jpg,79.0,87.0,0.0,,1.0,0.0,1.0,52.0,1.242,-0.9873363264529652,-8.0,0.7109825942910762,0.9658531284656218,-0.2548705341745455
334,Exp1,d11042021,339Ys,interference,1.0,3.0,46.0,2.0,55.0,Dekob1.jpg,Lewic1.jpg,17.0,78.0,0.0,,1.0,0.0,55.0,2.0,1.301,-0.9502281729246138,-61.0,-1.264264045561652,0.679123777519258,-1.94338782308091
335,Exp1,d11042021,339Ys,interference,0.0,3.0,47.0,42.0,32.0,Picc1n.jpg,Macka1.jpg,36.0,32.0,0.0,,,0.0,32.0,42.0,1.352,-0.918151633434005,4.0,-0.6589465268971063,-0.786381793984379,0.1274352670872727
336,Exp1,d11032021,JY6WO,interference,1.0,1.0,0.0,19.0,10.0,Macc1n.jpg,Stera1.jpg,25.0,19.0,1.0,,0.0,1.0,19.0,10.0,1.253,1.6241014203799642,6.0,-0.3731964708632866,-0.6704325980995328,0.2972361272362461
337,Exp1,d11032021,JY6WO,interference,0.0,1.0,1.0,52.0,55.0,Picaa1.jpg,Lewic1.jpg,37.0,26.0,0.0,,,1.0,52.0,55.0,1.045,0.7573583916717337,11.0,0.2212757836092055,-0.3236571163239123,0.5449328999331178
338,Exp1,d11032021,JY6WO,interference,0.0,1.0,2.0,45.0,1.0,Klia1n.jpg,Lewia1.jpg,21.0,33.0,0.0,,,1.0,45.0,1.0,0.861,-0.0093758260317008,-12.0,-0.5713538890207841,0.0231183654517081,-0.5944722544724922
339,Exp1,d11032021,JY6WO,interference,1.0,1.0,3.0,54.0,25.0,Kupka1.jpg,Clifa1.jpg,18.0,21.0,1.0,,0.0,1.0,54.0,25.0,0.619,-1.0177980036633922,-3.0,-0.7199719526389071,-0.5713538890207841,-0.148618063618123
340,Exp1,d11032021,JY6WO,interference,1.0,1.0,4.0,0.0,40.0,Gorkc1.jpg,Krab1n.jpg,25.0,61.0,1.0,,1.0,0.0,40.0,0.0,1.221,1.4907563390402372,-36.0,-0.3731964708632866,1.41022029255419,-1.783416763417477
341,Exp1,d11032021,JY6WO,interference,1.0,1.0,5.0,41.0,39.0,Vincb1.jpg,Dekb1n.jpg,57.0,31.0,1.0,,0.0,1.0,41.0,39.0,1.071,0.8657012702602626,26.0,1.2120628743966926,-0.0759603436270405,1.2880232180237332
342,Exp1,d11032021,JY6WO,interference,0.0,1.0,6.0,5.0,7.0,Kupb1n.jpg,Pica1n.jpg,32.0,50.0,0.0,,,0.0,7.0,5.0,0.689,-0.7261056382327379,-18.0,-0.0264209890876662,0.8652873926210721,-0.8917083817087383
343,Exp1,d11032021,JY6WO,interference,1.0,1.0,7.0,22.0,14.0,Macb1n.jpg,Kupkb1.jpg,27.0,31.0,1.0,,0.0,1.0,22.0,14.0,1.559,2.8992137606911115,-4.0,-0.274117761784538,-0.0759603436270405,-0.1981574181574974
344,Exp1,d11032021,JY6WO,interference,1.0,1.0,8.0,34.0,13.0,Monb1n.jpg,Picak1.jpg,25.0,26.0,1.0,,1.0,0.0,13.0,34.0,1.062,0.8281979661334645,-1.0,-0.3731964708632866,-0.3236571163239123,-0.0495393545393743
345,Exp1,d11032021,JY6WO,interference,1.0,1.0,9.0,24.0,36.0,Dekoa1.jpg,Gorkf1.jpg,31.0,26.0,1.0,,1.0,1.0,24.0,36.0,1.442,2.411670807042732,5.0,-0.0759603436270405,-0.3236571163239123,0.2476967726968717
346,Exp1,d11032021,JY6WO,interference,0.0,1.0,10.0,59.0,58.0,Kraa1n.jpg,Mackc1.jpg,50.0,35.0,0.0,,,0.0,58.0,59.0,1.14,1.1532266018990505,15.0,0.8652873926210721,0.1221970745304568,0.7430903180906153
347,Exp1,d11032021,JY6WO,interference,0.0,1.0,11.0,35.0,27.0,Wdeka1.jpg,Vinb1n.jpg,32.0,24.0,0.0,,,0.0,27.0,35.0,0.96,0.4031605193630818,8.0,-0.0264209890876662,-0.422735825402661,0.3963148363149948
348,Exp1,d11032021,JY6WO,interference,0.0,1.0,12.0,28.0,51.0,Krasa1.jpg,Gora1n.jpg,26.0,18.0,0.0,,,1.0,28.0,51.0,0.739,-0.517753948639413,8.0,-0.3236571163239123,-0.7199719526389071,0.3963148363149948
349,Exp1,d11032021,JY6WO,interference,0.0,1.0,13.0,32.0,2.0,Macka1.jpg,Dekob1.jpg,23.0,28.0,0.0,,,1.0,32.0,2.0,0.779,-0.3510725969647532,-5.0,-0.4722751799420354,-0.2245784072451636,-0.2476967726968717
350,Exp1,d11032021,JY6WO,interference,1.0,1.0,14.0,29.0,31.0,Clifb1.jpg,Maca1n.jpg,16.0,26.0,1.0,,1.0,0.0,31.0,29.0,0.769,-0.3927429348834181,-10.0,-0.8190506617176558,-0.3236571163239123,-0.4953935453937435
351,Exp1,d11032021,JY6WO,interference,0.0,1.0,15.0,30.0,44.0,Lasse1.jpg,Lassf1.jpg,24.0,18.0,0.0,,,0.0,44.0,30.0,0.924,0.2531473028558884,6.0,-0.422735825402661,-0.7199719526389071,0.2972361272362461
352,Exp1,d11032021,JY6WO,interference,0.0,2.0,16.0,59.0,58.0,Kraa1n.jpg,Mackc1.jpg,50.0,35.0,1.0,,,0.0,58.0,59.0,0.703,-0.667767165146607,15.0,0.8652873926210721,0.1221970745304568,0.7430903180906153
353,Exp1,d11032021,JY6WO,interference,0.0,2.0,17.0,5.0,7.0,Kupb1n.jpg,Pica1n.jpg,32.0,50.0,1.0,,,0.0,7.0,5.0,1.214,1.4615871024971712,-18.0,-0.0264209890876662,0.8652873926210721,-0.8917083817087383
354,Exp1,d11032021,JY6WO,interference,1.0,2.0,18.0,0.0,40.0,Gorkc1.jpg,Krab1n.jpg,25.0,61.0,0.0,,1.0,0.0,40.0,0.0,1.127,1.0990551626047864,-36.0,-0.3731964708632866,1.41022029255419,-1.783416763417477
355,Exp1,d11032021,JY6WO,interference,1.0,2.0,19.0,54.0,25.0,Kupka1.jpg,Clifa1.jpg,18.0,21.0,0.0,,0.0,1.0,54.0,25.0,0.909,0.1906417959778909,-3.0,-0.7199719526389071,-0.5713538890207841,-0.148618063618123
356,Exp1,d11032021,JY6WO,interference,1.0,2.0,20.0,24.0,36.0,Dekoa1.jpg,Gorkf1.jpg,31.0,26.0,0.0,,1.0,1.0,24.0,36.0,0.97,0.4448308572817468,5.0,-0.0759603436270405,-0.3236571163239123,0.2476967726968717
357,Exp1,d11032021,JY6WO,interference,0.0,2.0,21.0,35.0,27.0,Wdeka1.jpg,Vinb1n.jpg,32.0,24.0,1.0,,,0.0,27.0,35.0,0.541,-1.3428266394289785,8.0,-0.0264209890876662,-0.422735825402661,0.3963148363149948
358,Exp1,d11032021,JY6WO,interference,1.0,2.0,22.0,34.0,13.0,Monb1n.jpg,Picak1.jpg,25.0,26.0,0.0,,1.0,0.0,13.0,34.0,0.98,0.4865011952004118,-1.0,-0.3731964708632866,-0.3236571163239123,-0.0495393545393743
359,Exp1,d11032021,JY6WO,interference,0.0,2.0,23.0,28.0,51.0,Krasa1.jpg,Gora1n.jpg,26.0,18.0,1.0,,,1.0,28.0,51.0,0.57,-1.2219826594648506,8.0,-0.3236571163239123,-0.7199719526389071,0.3963148363149948
360,Exp1,d11032021,JY6WO,interference,0.0,2.0,24.0,32.0,2.0,Macka1.jpg,Dekob1.jpg,23.0,28.0,1.0,,,1.0,32.0,2.0,0.895,0.13230332289176,-5.0,-0.4722751799420354,-0.2245784072451636,-0.2476967726968717
361,Exp1,d11032021,JY6WO,interference,1.0,2.0,25.0,29.0,31.0,Clifb1.jpg,Maca1n.jpg,16.0,26.0,0.0,,1.0,0.0,31.0,29.0,1.167,1.2657365142794463,-10.0,-0.8190506617176558,-0.3236571163239123,-0.4953935453937435
362,Exp1,d11032021,JY6WO,interference,0.0,2.0,26.0,30.0,44.0,Lasse1.jpg,Lassf1.jpg,24.0,18.0,1.0,,,1.0,30.0,44.0,0.488,-1.563679430397903,6.0,-0.422735825402661,-0.7199719526389071,0.2972361272362461
363,Exp1,d11032021,JY6WO,interference,1.0,2.0,27.0,41.0,39.0,Vincb1.jpg,Dekb1n.jpg,57.0,31.0,0.0,,0.0,1.0,41.0,39.0,0.61,-1.0553013077901907,26.0,1.2120628743966926,-0.0759603436270405,1.2880232180237332
364,Exp1,d11032021,JY6WO,interference,1.0,2.0,28.0,19.0,10.0,Macc1n.jpg,Stera1.jpg,25.0,19.0,0.0,,0.0,1.0,19.0,10.0,0.981,0.4906682289922783,6.0,-0.3731964708632866,-0.6704325980995328,0.2972361272362461
365,Exp1,d11032021,JY6WO,interference,0.0,2.0,29.0,45.0,1.0,Klia1n.jpg,Lewia1.jpg,21.0,33.0,1.0,,,1.0,45.0,1.0,0.758,-0.4385803065939496,-12.0,-0.5713538890207841,0.0231183654517081,-0.5944722544724922
366,Exp1,d11032021,JY6WO,interference,0.0,2.0,30.0,52.0,55.0,Picaa1.jpg,Lewic1.jpg,37.0,26.0,1.0,,,1.0,52.0,55.0,0.841,-0.0927165018690308,11.0,0.2212757836092055,-0.3236571163239123,0.5449328999331178
367,Exp1,d11032021,JY6WO,interference,1.0,2.0,31.0,22.0,14.0,Macb1n.jpg,Kupkb1.jpg,27.0,31.0,0.0,,0.0,1.0,22.0,14.0,0.857,-0.0260439611991668,-4.0,-0.274117761784538,-0.0759603436270405,-0.1981574181574974
368,Exp1,d11032021,JY6WO,interference,0.0,3.0,32.0,35.0,27.0,Wdeka1.jpg,Vinb1n.jpg,32.0,24.0,0.0,,,0.0,27.0,35.0,0.753,-0.4594154755532821,8.0,-0.0264209890876662,-0.422735825402661,0.3963148363149948
369,Exp1,d11032021,JY6WO,interference,1.0,3.0,33.0,0.0,40.0,Gorkc1.jpg,Krab1n.jpg,25.0,61.0,0.0,,1.0,0.0,40.0,0.0,0.806,-0.2385626845843577,-36.0,-0.3731964708632866,1.41022029255419,-1.783416763417477
370,Exp1,d11032021,JY6WO,interference,1.0,3.0,34.0,29.0,31.0,Clifb1.jpg,Maca1n.jpg,16.0,26.0,0.0,,1.0,0.0,31.0,29.0,0.61,-1.0553013077901907,-10.0,-0.8190506617176558,-0.3236571163239123,-0.4953935453937435
371,Exp1,d11032021,JY6WO,interference,1.0,3.0,35.0,24.0,36.0,Dekoa1.jpg,Gorkf1.jpg,31.0,26.0,0.0,,1.0,1.0,24.0,36.0,0.879,0.065630782221896,5.0,-0.0759603436270405,-0.3236571163239123,0.2476967726968717
372,Exp1,d11032021,JY6WO,interference,0.0,3.0,36.0,45.0,1.0,Klia1n.jpg,Lewia1.jpg,21.0,33.0,0.0,,,1.0,45.0,1.0,0.648,-0.8969540236992638,-12.0,-0.5713538890207841,0.0231183654517081,-0.5944722544724922
373,Exp1,d11032021,JY6WO,interference,1.0,3.0,37.0,34.0,13.0,Monb1n.jpg,Picak1.jpg,25.0,26.0,0.0,,1.0,0.0,13.0,34.0,0.76,-0.4302462390102166,-1.0,-0.3731964708632866,-0.3236571163239123,-0.0495393545393743
374,Exp1,d11032021,JY6WO,interference,0.0,3.0,38.0,32.0,2.0,Macka1.jpg,Dekob1.jpg,23.0,28.0,0.0,,,1.0,32.0,2.0,0.619,-1.0177980036633922,-5.0,-0.4722751799420354,-0.2245784072451636,-0.2476967726968717
375,Exp1,d11032021,JY6WO,interference,1.0,3.0,39.0,41.0,39.0,Vincb1.jpg,Dekb1n.jpg,57.0,31.0,0.0,,0.0,1.0,41.0,39.0,0.77,-0.3885759010915516,26.0,1.2120628743966926,-0.0759603436270405,1.2880232180237332
376,Exp1,d11032021,JY6WO,interference,0.0,3.0,40.0,28.0,51.0,Krasa1.jpg,Gora1n.jpg,26.0,18.0,0.0,,,1.0,28.0,51.0,0.71,-0.6385979286035415,8.0,-0.3236571163239123,-0.7199719526389071,0.3963148363149948
377,Exp1,d11032021,JY6WO,interference,1.0,3.0,41.0,19.0,10.0,Macc1n.jpg,Stera1.jpg,25.0,19.0,0.0,,0.0,1.0,19.0,10.0,0.739,-0.517753948639413,6.0,-0.3731964708632866,-0.6704325980995328,0.2972361272362461
378,Exp1,d11032021,JY6WO,interference,1.0,3.0,42.0,22.0,14.0,Macb1n.jpg,Kupkb1.jpg,27.0,31.0,0.0,,0.0,1.0,22.0,14.0,0.81,-0.2218945494168917,-4.0,-0.274117761784538,-0.0759603436270405,-0.1981574181574974
379,Exp1,d11032021,JY6WO,interference,0.0,3.0,43.0,52.0,55.0,Picaa1.jpg,Lewic1.jpg,37.0,26.0,0.0,,,1.0,52.0,55.0,0.61,-1.0553013077901907,11.0,0.2212757836092055,-0.3236571163239123,0.5449328999331178
380,Exp1,d11032021,JY6WO,interference,0.0,3.0,44.0,30.0,44.0,Lasse1.jpg,Lassf1.jpg,24.0,18.0,0.0,,,0.0,44.0,30.0,0.579,-1.1844793553380522,6.0,-0.422735825402661,-0.7199719526389071,0.2972361272362461
381,Exp1,d11032021,JY6WO,interference,1.0,3.0,45.0,54.0,25.0,Kupka1.jpg,Clifa1.jpg,18.0,21.0,0.0,,0.0,1.0,54.0,25.0,0.539,-1.3511607070127116,-3.0,-0.7199719526389071,-0.5713538890207841,-0.148618063618123
382,Exp1,d11032021,JY6WO,interference,0.0,3.0,46.0,5.0,7.0,Kupb1n.jpg,Pica1n.jpg,32.0,50.0,0.0,,,0.0,7.0,5.0,0.84,-0.0968835356608973,-18.0,-0.0264209890876662,0.8652873926210721,-0.8917083817087383
383,Exp1,d11032021,JY6WO,interference,0.0,3.0,47.0,59.0,58.0,Kraa1n.jpg,Mackc1.jpg,50.0,35.0,0.0,,,0.0,58.0,59.0,1.02,0.6531825468750717,15.0,0.8652873926210721,0.1221970745304568,0.7430903180906153
432,Exp1,d11032021,UiTO9,interference,0.0,1.0,0.0,34.0,43.0,Monb1n.jpg,Picac1.jpg,57.0,72.0,0.0,,,0.0,43.0,34.0,2.016,-0.4995399127498212,-15.0,-0.2038931772067722,0.4757507468158019,-0.6796439240225742
433,Exp1,d11032021,UiTO9,interference,1.0,1.0,1.0,33.0,42.0,Kupc1n.jpg,Picc1n.jpg,53.0,63.0,1.0,,1.0,1.0,33.0,42.0,2.803,-0.0669656475738345,-10.0,-0.3851315569461254,0.0679643924022574,-0.4530959493483828
434,Exp1,d11032021,UiTO9,interference,0.0,1.0,2.0,19.0,17.0,Macc1n.jpg,Picab1.jpg,75.0,64.0,0.0,,,1.0,19.0,17.0,2.644,-0.154359940029974,11.0,0.6116795316203167,0.1132739873370957,0.498405544283221
435,Exp1,d11032021,UiTO9,interference,0.0,1.0,3.0,38.0,49.0,Lasc1n.jpg,Hinda1.jpg,59.0,63.0,0.0,,,0.0,49.0,38.0,1.81,-0.6127677381961405,-4.0,-0.1132739873370957,0.0679643924022574,-0.1812383797393531
436,Exp1,d11032021,UiTO9,interference,0.0,1.0,4.0,16.0,13.0,Lewa1n.jpg,Picak1.jpg,68.0,62.0,0.0,,,0.0,13.0,16.0,2.199,-0.3989540289795474,6.0,0.2945123670764488,0.0226547974674191,0.2718575696090297
437,Exp1,d11032021,UiTO9,interference,0.0,1.0,5.0,18.0,37.0,Krasb1.jpg,Mondb1.jpg,69.0,68.0,0.0,,,1.0,18.0,37.0,1.863,-0.5836363073774272,1.0,0.3398219620112871,0.2945123670764488,0.0453095949348382
438,Exp1,d11032021,UiTO9,interference,1.0,1.0,6.0,41.0,59.0,Vincb1.jpg,Kraa1n.jpg,64.0,68.0,1.0,,1.0,0.0,59.0,41.0,0.853,-1.138782441847245,-4.0,0.1132739873370957,0.2945123670764488,-0.1812383797393531
439,Exp1,d11032021,UiTO9,interference,1.0,1.0,7.0,8.0,55.0,Klina1.jpg,Lewic1.jpg,63.0,76.0,1.0,,0.0,0.0,55.0,8.0,4.495,0.8630415400726326,-13.0,0.0679643924022574,0.6569891265551551,-0.5890247341528977
440,Exp1,d11032021,UiTO9,interference,1.0,1.0,8.0,45.0,4.0,Klia1n.jpg,Mackb1.jpg,62.0,60.0,1.0,,1.0,1.0,45.0,4.0,3.364,0.2413877993940543,2.0,0.0226547974674191,-0.0679643924022574,0.0906191898696765
441,Exp1,d11032021,UiTO9,interference,1.0,1.0,9.0,12.0,0.0,Kupkc1.jpg,Gorkc1.jpg,61.0,50.0,1.0,,0.0,1.0,12.0,0.0,2.215,-0.3901596347701245,11.0,-0.0226547974674191,-0.5210603417506402,0.498405544283221
442,Exp1,d11032021,UiTO9,interference,0.0,1.0,10.0,47.0,57.0,Kupkd1.jpg,Lewc1n.jpg,65.0,71.0,0.0,,,1.0,47.0,57.0,2.481,-0.2439528310384695,-6.0,0.1585835822719339,0.4304411518809636,-0.2718575696090297
443,Exp1,d11032021,UiTO9,interference,0.0,1.0,11.0,25.0,31.0,Clifa1.jpg,Maca1n.jpg,55.0,71.0,0.0,,,0.0,31.0,25.0,2.93,0.0028398564634595,-16.0,-0.2945123670764488,0.4304411518809636,-0.7249535189574126
444,Exp1,d11032021,UiTO9,interference,1.0,1.0,12.0,48.0,58.0,Picb1n.jpg,Mackc1.jpg,66.0,60.0,1.0,,0.0,1.0,48.0,58.0,3.261,0.1847738866708948,6.0,0.2038931772067722,-0.0679643924022574,0.2718575696090297
445,Exp1,d11032021,UiTO9,interference,1.0,1.0,13.0,24.0,3.0,Dekoa1.jpg,Fogeg1.jpg,70.0,76.0,1.0,,0.0,0.0,3.0,24.0,4.463,0.8454527516537869,-6.0,0.3851315569461254,0.6569891265551551,-0.2718575696090297
446,Exp1,d11032021,UiTO9,interference,0.0,1.0,14.0,10.0,53.0,Stera1.jpg,Gorka1.jpg,63.0,64.0,0.0,,,1.0,10.0,53.0,2.89,-0.0191461290600976,-1.0,0.0679643924022574,0.1132739873370957,-0.0453095949348382
447,Exp1,d11032021,UiTO9,interference,1.0,1.0,15.0,30.0,28.0,Lasse1.jpg,Krasa1.jpg,74.0,69.0,1.0,,1.0,0.0,28.0,30.0,1.563,-0.7485311988041058,5.0,0.5663699366854785,0.3398219620112871,0.2265479746741914
448,Exp1,d11032021,UiTO9,interference,1.0,2.0,16.0,30.0,28.0,Lasse1.jpg,Krasa1.jpg,74.0,69.0,0.0,,1.0,0.0,28.0,30.0,1.956,-0.5325188910351569,5.0,0.5663699366854785,0.3398219620112871,0.2265479746741914
449,Exp1,d11032021,UiTO9,interference,0.0,2.0,17.0,18.0,37.0,Krasb1.jpg,Mondb1.jpg,69.0,68.0,1.0,,,1.0,18.0,37.0,1.97,-0.524823796101912,1.0,0.3398219620112871,0.2945123670764488,0.0453095949348382
450,Exp1,d11032021,UiTO9,interference,1.0,2.0,18.0,45.0,4.0,Klia1n.jpg,Mackb1.jpg,62.0,60.0,0.0,,1.0,1.0,45.0,4.0,5.088,1.188983775459367,2.0,0.0226547974674191,-0.0679643924022574,0.0906191898696765
451,Exp1,d11032021,UiTO9,interference,1.0,2.0,19.0,41.0,59.0,Vincb1.jpg,Kraa1n.jpg,64.0,68.0,0.0,,1.0,0.0,59.0,41.0,2.4,-0.2884744517236727,-4.0,0.1132739873370957,0.2945123670764488,-0.1812383797393531
452,Exp1,d11032021,UiTO9,interference,0.0,2.0,20.0,10.0,53.0,Stera1.jpg,Gorka1.jpg,63.0,64.0,1.0,,,1.0,10.0,53.0,1.749,-0.6462963661195651,-1.0,0.0679643924022574,0.1132739873370957,-0.0453095949348382
453,Exp1,d11032021,UiTO9,interference,0.0,2.0,21.0,34.0,43.0,Monb1n.jpg,Picac1.jpg,57.0,72.0,1.0,,,0.0,43.0,34.0,7.447,2.485607271711149,-15.0,-0.2038931772067722,0.4757507468158019,-0.6796439240225742
454,Exp1,d11032021,UiTO9,interference,1.0,2.0,22.0,48.0,58.0,Picb1n.jpg,Mackc1.jpg,66.0,60.0,0.0,,0.0,1.0,48.0,58.0,6.799,2.129434306229524,6.0,0.2038931772067722,-0.0679643924022574,0.2718575696090297
455,Exp1,d11032021,UiTO9,interference,0.0,2.0,23.0,16.0,13.0,Lewa1n.jpg,Picak1.jpg,68.0,62.0,1.0,,,0.0,13.0,16.0,5.814,1.5880294127119292,6.0,0.2945123670764488,0.0226547974674191,0.2718575696090297
456,Exp1,d11032021,UiTO9,interference,0.0,2.0,24.0,19.0,17.0,Macc1n.jpg,Picab1.jpg,75.0,64.0,1.0,,,1.0,19.0,17.0,3.555,0.3463708802690398,11.0,0.6116795316203167,0.1132739873370957,0.498405544283221
457,Exp1,d11032021,UiTO9,interference,1.0,2.0,25.0,8.0,55.0,Klina1.jpg,Lewic1.jpg,63.0,76.0,0.0,,0.0,0.0,55.0,8.0,1.857,-0.5869342052059608,-13.0,0.0679643924022574,0.6569891265551551,-0.5890247341528977
458,Exp1,d11032021,UiTO9,interference,1.0,2.0,26.0,12.0,0.0,Kupkc1.jpg,Gorkc1.jpg,61.0,50.0,0.0,,0.0,1.0,12.0,0.0,7.724,2.6378602214617826,11.0,-0.0226547974674191,-0.5210603417506402,0.498405544283221
459,Exp1,d11032021,UiTO9,interference,1.0,2.0,27.0,24.0,3.0,Dekoa1.jpg,Fogeg1.jpg,70.0,76.0,0.0,,0.0,0.0,3.0,24.0,4.411,0.8168709704731623,-6.0,0.3851315569461254,0.6569891265551551,-0.2718575696090297
460,Exp1,d11032021,UiTO9,interference,0.0,2.0,28.0,47.0,57.0,Kupkd1.jpg,Lewc1n.jpg,65.0,71.0,1.0,,,1.0,47.0,57.0,3.809,0.4859818883436276,-6.0,0.1585835822719339,0.4304411518809636,-0.2718575696090297
461,Exp1,d11032021,UiTO9,interference,0.0,2.0,29.0,25.0,31.0,Clifa1.jpg,Maca1n.jpg,55.0,71.0,1.0,,,1.0,25.0,31.0,5.14,1.2175655566399912,-16.0,-0.2945123670764488,0.4304411518809636,-0.7249535189574126
462,Exp1,d11032021,UiTO9,interference,0.0,2.0,30.0,38.0,49.0,Lasc1n.jpg,Hinda1.jpg,59.0,63.0,1.0,,,0.0,49.0,38.0,4.25,0.7283773787408451,-4.0,-0.1132739873370957,0.0679643924022574,-0.1812383797393531
463,Exp1,d11032021,UiTO9,interference,1.0,2.0,31.0,33.0,42.0,Kupc1n.jpg,Picc1n.jpg,53.0,63.0,0.0,,1.0,0.0,42.0,33.0,6.49,1.959592568060045,-10.0,-0.3851315569461254,0.0679643924022574,-0.4530959493483828
464,Exp1,d11032021,UiTO9,interference,0.0,3.0,32.0,18.0,37.0,Krasb1.jpg,Mondb1.jpg,69.0,68.0,0.0,,,0.0,37.0,18.0,3.969,0.573925830437856,1.0,0.3398219620112871,0.2945123670764488,0.0453095949348382
465,Exp1,d11032021,UiTO9,interference,0.0,3.0,33.0,16.0,13.0,Lewa1n.jpg,Picak1.jpg,68.0,62.0,0.0,,,0.0,13.0,16.0,0.795,-1.170662120856403,6.0,0.2945123670764488,0.0226547974674191,0.2718575696090297
466,Exp1,d11032021,UiTO9,interference,0.0,3.0,34.0,34.0,43.0,Monb1n.jpg,Picac1.jpg,57.0,72.0,0.0,,,0.0,43.0,34.0,0.735,-1.2036410991417388,-15.0,-0.2038931772067722,0.4757507468158019,-0.6796439240225742
467,Exp1,d11032021,UiTO9,interference,0.0,3.0,35.0,25.0,31.0,Clifa1.jpg,Maca1n.jpg,55.0,71.0,0.0,,,1.0,25.0,31.0,4.029,0.6069048087231917,-16.0,-0.2945123670764488,0.4304411518809636,-0.7249535189574126
468,Exp1,d11032021,UiTO9,interference,1.0,3.0,36.0,41.0,59.0,Vincb1.jpg,Kraa1n.jpg,64.0,68.0,0.0,,1.0,0.0,59.0,41.0,3.041,0.0638509662913304,-4.0,0.1132739873370957,0.2945123670764488,-0.1812383797393531
469,Exp1,d11032021,UiTO9,interference,0.0,3.0,37.0,38.0,49.0,Lasc1n.jpg,Hinda1.jpg,59.0,63.0,0.0,,,0.0,49.0,38.0,1.398,-0.839223389088779,-4.0,-0.1132739873370957,0.0679643924022574,-0.1812383797393531
470,Exp1,d11032021,UiTO9,interference,1.0,3.0,38.0,45.0,4.0,Klia1n.jpg,Mackb1.jpg,62.0,60.0,0.0,,1.0,1.0,45.0,4.0,2.377,-0.3011163933997181,2.0,0.0226547974674191,-0.0679643924022574,0.0906191898696765
471,Exp1,d11032021,UiTO9,interference,1.0,3.0,39.0,33.0,42.0,Kupc1n.jpg,Picc1n.jpg,53.0,63.0,0.0,,1.0,1.0,33.0,42.0,1.982,-0.5182280004448447,-10.0,-0.3851315569461254,0.0679643924022574,-0.4530959493483828
472,Exp1,d11032021,UiTO9,interference,1.0,3.0,40.0,30.0,28.0,Lasse1.jpg,Krasa1.jpg,74.0,69.0,0.0,,1.0,0.0,28.0,30.0,1.28,-0.9040820463832726,5.0,0.5663699366854785,0.3398219620112871,0.2265479746741914
473,Exp1,d11032021,UiTO9,interference,1.0,3.0,41.0,12.0,0.0,Kupkc1.jpg,Gorkc1.jpg,61.0,50.0,0.0,,0.0,1.0,12.0,0.0,0.739,-1.201442500589383,11.0,-0.0226547974674191,-0.5210603417506402,0.498405544283221
474,Exp1,d11032021,UiTO9,interference,1.0,3.0,42.0,48.0,58.0,Picb1n.jpg,Mackc1.jpg,66.0,60.0,0.0,,0.0,1.0,48.0,58.0,2.115,-0.4451245985790171,6.0,0.2038931772067722,-0.0679643924022574,0.2718575696090297
475,Exp1,d11032021,UiTO9,interference,1.0,3.0,43.0,8.0,55.0,Klina1.jpg,Lewic1.jpg,63.0,76.0,0.0,,0.0,0.0,55.0,8.0,0.594,-1.2811416981122776,-13.0,0.0679643924022574,0.6569891265551551,-0.5890247341528977
476,Exp1,d11032021,UiTO9,interference,0.0,3.0,44.0,19.0,17.0,Macc1n.jpg,Picab1.jpg,75.0,64.0,0.0,,,1.0,19.0,17.0,0.833,-1.1497754346090236,11.0,0.6116795316203167,0.1132739873370957,0.498405544283221
477,Exp1,d11032021,UiTO9,interference,0.0,3.0,45.0,10.0,53.0,Stera1.jpg,Gorka1.jpg,63.0,64.0,0.0,,,1.0,10.0,53.0,2.028,-0.492944117092754,-1.0,0.0679643924022574,0.1132739873370957,-0.0453095949348382
478,Exp1,d11032021,UiTO9,interference,0.0,3.0,46.0,47.0,57.0,Kupkd1.jpg,Lewc1n.jpg,65.0,71.0,0.0,,,1.0,47.0,57.0,1.344,-0.8689044695455811,-6.0,0.1585835822719339,0.4304411518809636,-0.2718575696090297
479,Exp1,d11032021,UiTO9,interference,1.0,3.0,47.0,24.0,3.0,Dekoa1.jpg,Fogeg1.jpg,70.0,76.0,0.0,,0.0,0.0,3.0,24.0,0.824,-1.154722281351824,-6.0,0.3851315569461254,0.6569891265551551,-0.2718575696090297
480,Exp1,d11032021,MJ2Dl,interference,0.0,1.0,0.0,25.0,31.0,Clifa1.jpg,Maca1n.jpg,60.0,36.0,0.0,,,0.0,31.0,25.0,1.05,-0.9892493432774848,24.0,-0.0843215095958963,-0.904747008366779,0.8204254987708827
481,Exp1,d11032021,MJ2Dl,interference,0.0,1.0,1.0,22.0,37.0,Macb1n.jpg,Mondb1.jpg,55.0,89.0,0.0,,,1.0,22.0,37.0,1.147,-0.9316051378997148,-34.0,-0.2552434885064969,0.9070259680855868,-1.162269456592084
482,Exp1,d11032021,MJ2Dl,interference,0.0,1.0,2.0,58.0,52.0,Mackc1.jpg,Picaa1.jpg,93.0,71.0,0.0,,,1.0,58.0,52.0,1.762,-0.5661289904014812,22.0,1.0437635512140673,0.2917068440074249,0.7520567072066424
483,Exp1,d11032021,MJ2Dl,interference,1.0,1.0,3.0,4.0,21.0,Mackb1.jpg,Lewb1n.jpg,75.0,82.0,1.0,,1.0,0.0,21.0,4.0,1.686,-0.6112935224500435,-7.0,0.4284444271359053,0.6677351976107462,-0.2392907704748408
484,Exp1,d11032021,MJ2Dl,interference,1.0,1.0,4.0,35.0,6.0,Wdeka1.jpg,Wdekc1.jpg,95.0,81.0,1.0,,0.0,1.0,35.0,6.0,2.668,-0.0277202267699371,14.0,1.1121323427783076,0.633550801828626,0.4785815409496816
485,Exp1,d11032021,MJ2Dl,interference,0.0,1.0,5.0,17.0,30.0,Picab1.jpg,Lasse1.jpg,40.0,60.0,0.0,,,1.0,17.0,30.0,2.48,-0.1394430165742752,-20.0,-0.7680094252382986,-0.0843215095958963,-0.6836879156424023
486,Exp1,d11032021,MJ2Dl,interference,1.0,1.0,6.0,2.0,45.0,Dekob1.jpg,Klia1n.jpg,51.0,65.0,1.0,,0.0,0.0,45.0,2.0,2.882,0.0994535871562774,-14.0,-0.3919810716349773,0.0866004693147042,-0.4785815409496816
487,Exp1,d11032021,MJ2Dl,interference,1.0,1.0,7.0,26.0,13.0,Clib1n.jpg,Picak1.jpg,82.0,36.0,1.0,,0.0,1.0,26.0,13.0,1.714,-0.5946539580110995,46.0,0.6677351976107462,-0.904747008366779,1.5724822059775252
488,Exp1,d11032021,MJ2Dl,interference,1.0,1.0,8.0,3.0,40.0,Fogeg1.jpg,Krab1n.jpg,67.0,54.0,1.0,,1.0,1.0,3.0,40.0,3.29,0.3419158118380323,13.0,0.1549692608789444,-0.289427884288617,0.4443971451675614
489,Exp1,d11032021,MJ2Dl,interference,1.0,1.0,9.0,32.0,16.0,Macka1.jpg,Lewa1n.jpg,63.0,73.0,1.0,,1.0,0.0,16.0,32.0,3.308,0.352612674691639,-10.0,0.0182316777504639,0.3600756355716651,-0.3418439578212011
490,Exp1,d11032021,MJ2Dl,interference,0.0,1.0,10.0,49.0,24.0,Hinda1.jpg,Dekoa1.jpg,69.0,80.0,0.0,,,1.0,49.0,24.0,2.478,-0.1406315568913425,-11.0,0.2233380524431846,0.5993664060465059,-0.3760283536033212
491,Exp1,d11032021,MJ2Dl,interference,0.0,1.0,11.0,8.0,55.0,Klina1.jpg,Lewic1.jpg,43.0,50.0,0.0,,,0.0,55.0,8.0,2.762,0.0281411681322318,-7.0,-0.6654562378919382,-0.4261654674170975,-0.2392907704748407
492,Exp1,d11032021,MJ2Dl,interference,1.0,1.0,12.0,7.0,47.0,Pica1n.jpg,Kupkd1.jpg,66.0,77.0,1.0,,1.0,0.0,47.0,7.0,2.484,-0.1370659359401404,-11.0,0.1207848650968243,0.4968132187001455,-0.3760283536033212
493,Exp1,d11032021,MJ2Dl,interference,0.0,1.0,13.0,48.0,41.0,Picb1n.jpg,Vincb1.jpg,75.0,70.0,0.0,,,1.0,48.0,41.0,2.228,-0.2891990965247708,5.0,0.4284444271359053,0.2575224482253048,0.1709219789106005
494,Exp1,d11032021,MJ2Dl,interference,0.0,1.0,14.0,19.0,38.0,Macc1n.jpg,Lasc1n.jpg,78.0,76.0,0.0,,,1.0,19.0,38.0,4.518,1.071679566517432,2.0,0.5309976144822657,0.4626288229180254,0.0683687915642402
495,Exp1,d11032021,MJ2Dl,interference,1.0,1.0,15.0,54.0,44.0,Kupka1.jpg,Lassf1.jpg,69.0,85.0,1.0,,0.0,0.0,44.0,54.0,1.952,-0.4532176602800758,-16.0,0.2233380524431846,0.7702883849571065,-0.5469503325139218
496,Exp1,d11032021,MJ2Dl,interference,0.0,2.0,16.0,48.0,41.0,Picb1n.jpg,Vincb1.jpg,75.0,70.0,1.0,,,1.0,48.0,41.0,0.87,-1.0962179718135532,5.0,0.4284444271359053,0.2575224482253048,0.1709219789106005
497,Exp1,d11032021,MJ2Dl,interference,1.0,2.0,17.0,26.0,13.0,Clib1n.jpg,Picak1.jpg,82.0,36.0,0.0,,0.0,0.0,13.0,26.0,3.352,0.3787605616671224,46.0,0.6677351976107462,-0.904747008366779,1.5724822059775252
498,Exp1,d11032021,MJ2Dl,interference,1.0,2.0,18.0,4.0,21.0,Mackb1.jpg,Lewb1n.jpg,75.0,82.0,0.0,,1.0,0.0,21.0,4.0,3.704,0.5879436574709896,-7.0,0.4284444271359053,0.6677351976107462,-0.2392907704748408
499,Exp1,d11032021,MJ2Dl,interference,0.0,2.0,19.0,19.0,38.0,Macc1n.jpg,Lasc1n.jpg,78.0,76.0,1.0,,,1.0,19.0,38.0,3.563,0.5041515651177361,2.0,0.5309976144822657,0.4626288229180254,0.0683687915642402
500,Exp1,d11032021,MJ2Dl,interference,0.0,2.0,20.0,22.0,37.0,Macb1n.jpg,Mondb1.jpg,55.0,89.0,1.0,,,1.0,22.0,37.0,6.089,2.005277985573896,-34.0,-0.2552434885064969,0.9070259680855868,-1.162269456592084
501,Exp1,d11032021,MJ2Dl,interference,0.0,2.0,21.0,58.0,52.0,Mackc1.jpg,Picaa1.jpg,93.0,71.0,1.0,,,1.0,58.0,52.0,1.962,-0.4472749586947386,22.0,1.0437635512140673,0.2917068440074249,0.7520567072066424
502,Exp1,d11032021,MJ2Dl,interference,1.0,2.0,22.0,3.0,40.0,Fogeg1.jpg,Krab1n.jpg,67.0,54.0,0.0,,1.0,1.0,3.0,40.0,5.555,1.6879377209168922,13.0,0.1549692608789444,-0.289427884288617,0.4443971451675614
503,Exp1,d11032021,MJ2Dl,interference,0.0,2.0,23.0,49.0,24.0,Hinda1.jpg,Dekoa1.jpg,69.0,80.0,1.0,,,0.0,24.0,49.0,2.899,0.1095561798513505,-11.0,0.2233380524431846,0.5993664060465059,-0.3760283536033212
504,Exp1,d11032021,MJ2Dl,interference,1.0,2.0,24.0,2.0,45.0,Dekob1.jpg,Klia1n.jpg,51.0,65.0,0.0,,0.0,0.0,45.0,2.0,3.606,0.5297051819346856,-14.0,-0.3919810716349773,0.0866004693147042,-0.4785815409496816
505,Exp1,d11032021,MJ2Dl,interference,1.0,2.0,25.0,35.0,6.0,Wdeka1.jpg,Wdekc1.jpg,95.0,81.0,0.0,,0.0,0.0,6.0,35.0,3.776,0.6307311088854167,14.0,1.1121323427783076,0.633550801828626,0.4785815409496816
506,Exp1,d11032021,MJ2Dl,interference,0.0,2.0,26.0,8.0,55.0,Klina1.jpg,Lewic1.jpg,43.0,50.0,1.0,,,0.0,55.0,8.0,1.321,-0.8282021303148488,-7.0,-0.6654562378919382,-0.4261654674170975,-0.2392907704748407
507,Exp1,d11032021,MJ2Dl,interference,1.0,2.0,27.0,32.0,16.0,Macka1.jpg,Lewa1n.jpg,63.0,73.0,0.0,,1.0,0.0,16.0,32.0,2.78,0.0388380309858385,-10.0,0.0182316777504639,0.3600756355716651,-0.3418439578212011
508,Exp1,d11032021,MJ2Dl,interference,0.0,2.0,28.0,17.0,30.0,Picab1.jpg,Lasse1.jpg,40.0,60.0,1.0,,,1.0,17.0,30.0,1.503,-0.720044961461713,-20.0,-0.7680094252382986,-0.0843215095958963,-0.6836879156424023
509,Exp1,d11032021,MJ2Dl,interference,1.0,2.0,29.0,54.0,44.0,Kupka1.jpg,Lassf1.jpg,69.0,85.0,0.0,,0.0,0.0,44.0,54.0,1.756,-0.5696946113526835,-16.0,0.2233380524431846,0.7702883849571065,-0.5469503325139218
510,Exp1,d11032021,MJ2Dl,interference,0.0,2.0,30.0,25.0,31.0,Clifa1.jpg,Maca1n.jpg,60.0,36.0,1.0,,,1.0,25.0,31.0,5.514,1.6635726444170102,24.0,-0.0843215095958963,-0.904747008366779,0.8204254987708827
511,Exp1,d11032021,MJ2Dl,interference,1.0,2.0,31.0,7.0,47.0,Pica1n.jpg,Kupkd1.jpg,66.0,77.0,0.0,,1.0,1.0,7.0,47.0,2.833,0.0703343493881255,-11.0,0.1207848650968243,0.4968132187001455,-0.3760283536033212
512,Exp1,d11032021,MJ2Dl,interference,1.0,3.0,32.0,32.0,16.0,Macka1.jpg,Lewa1n.jpg,63.0,73.0,0.0,,1.0,0.0,16.0,32.0,0.814,-1.1294971006914412,-10.0,0.0182316777504639,0.3600756355716651,-0.3418439578212011
513,Exp1,d11032021,MJ2Dl,interference,0.0,3.0,33.0,8.0,55.0,Klina1.jpg,Lewic1.jpg,43.0,50.0,0.0,,,1.0,8.0,55.0,2.211,-0.2993016892198442,-7.0,-0.6654562378919382,-0.4261654674170975,-0.2392907704748407
514,Exp1,d11032021,MJ2Dl,interference,1.0,3.0,34.0,26.0,13.0,Clib1n.jpg,Picak1.jpg,82.0,36.0,0.0,,0.0,1.0,26.0,13.0,3.182,0.2777346347163912,46.0,0.6677351976107462,-0.904747008366779,1.5724822059775252
515,Exp1,d11032021,MJ2Dl,interference,0.0,3.0,35.0,25.0,31.0,Clifa1.jpg,Maca1n.jpg,60.0,36.0,0.0,,,1.0,25.0,31.0,0.798,-1.1390054232279807,24.0,-0.0843215095958963,-0.904747008366779,0.8204254987708827
516,Exp1,d11032021,MJ2Dl,interference,1.0,3.0,36.0,54.0,44.0,Kupka1.jpg,Lassf1.jpg,69.0,85.0,0.0,,0.0,0.0,44.0,54.0,1.064,-0.980929561058013,-16.0,0.2233380524431846,0.7702883849571065,-0.5469503325139218
517,Exp1,d11032021,MJ2Dl,interference,1.0,3.0,37.0,2.0,45.0,Dekob1.jpg,Klia1n.jpg,51.0,65.0,0.0,,0.0,0.0,45.0,2.0,2.548,-0.0990326457939827,-14.0,-0.3919810716349773,0.0866004693147042,-0.4785815409496816
518,Exp1,d11032021,MJ2Dl,interference,0.0,3.0,38.0,48.0,41.0,Picb1n.jpg,Vincb1.jpg,75.0,70.0,0.0,,,1.0,48.0,41.0,9.482,4.021636633478783,5.0,0.4284444271359053,0.2575224482253048,0.1709219789106005
519,Exp1,d11032021,MJ2Dl,interference,1.0,3.0,39.0,4.0,21.0,Mackb1.jpg,Lewb1n.jpg,75.0,82.0,0.0,,1.0,0.0,21.0,4.0,1.053,-0.987466532801884,-7.0,0.4284444271359053,0.6677351976107462,-0.2392907704748408
520,Exp1,d11032021,MJ2Dl,interference,1.0,3.0,40.0,35.0,6.0,Wdeka1.jpg,Wdekc1.jpg,95.0,81.0,0.0,,0.0,0.0,6.0,35.0,2.002,-0.4235041523533902,14.0,1.1121323427783076,0.633550801828626,0.4785815409496816
521,Exp1,d11032021,MJ2Dl,interference,1.0,3.0,41.0,3.0,40.0,Fogeg1.jpg,Krab1n.jpg,67.0,54.0,0.0,,1.0,0.0,40.0,3.0,5.942,1.9179202722694395,13.0,0.1549692608789444,-0.289427884288617,0.4443971451675614
522,Exp1,d11032021,MJ2Dl,interference,0.0,3.0,42.0,17.0,30.0,Picab1.jpg,Lasse1.jpg,40.0,60.0,0.0,,,1.0,17.0,30.0,0.879,-1.09086954038675,-20.0,-0.7680094252382986,-0.0843215095958963,-0.6836879156424023
523,Exp1,d11032021,MJ2Dl,interference,0.0,3.0,43.0,58.0,52.0,Mackc1.jpg,Picaa1.jpg,93.0,71.0,0.0,,,1.0,58.0,52.0,4.171,0.8654678215062337,22.0,1.0437635512140673,0.2917068440074249,0.7520567072066424
524,Exp1,d11032021,MJ2Dl,interference,0.0,3.0,44.0,19.0,38.0,Macc1n.jpg,Lasc1n.jpg,78.0,76.0,0.0,,,0.0,38.0,19.0,1.599,-0.6629950262424765,2.0,0.5309976144822657,0.4626288229180254,0.0683687915642402
525,Exp1,d11032021,MJ2Dl,interference,0.0,3.0,45.0,49.0,24.0,Hinda1.jpg,Dekoa1.jpg,69.0,80.0,0.0,,,0.0,24.0,49.0,1.694,-0.6065393611817738,-11.0,0.2233380524431846,0.5993664060465059,-0.3760283536033212
526,Exp1,d11032021,MJ2Dl,interference,1.0,3.0,46.0,7.0,47.0,Pica1n.jpg,Kupkd1.jpg,66.0,77.0,0.0,,1.0,0.0,47.0,7.0,2.126,-0.3498146526952098,-11.0,0.1207848650968243,0.4968132187001455,-0.3760283536033212
527,Exp1,d11032021,MJ2Dl,interference,0.0,3.0,47.0,22.0,37.0,Macb1n.jpg,Mondb1.jpg,55.0,89.0,0.0,,,0.0,37.0,22.0,1.246,-0.8727723922048772,-34.0,-0.2552434885064969,0.9070259680855868,-1.162269456592084
528,Exp1,d11032021,52UGI,interference,0.0,1.0,0.0,30.0,53.0,Lasse1.jpg,Gorka1.jpg,66.0,59.0,0.0,,,1.0,30.0,53.0,1.483,0.2746544674196156,7.0,0.8322483317882072,0.4395019280229859,0.3927464037652213
529,Exp1,d11032021,52UGI,interference,0.0,1.0,1.0,50.0,24.0,Gorke1.jpg,Dekoa1.jpg,42.0,60.0,0.0,,,0.0,24.0,50.0,1.52,0.3219297469444495,-18.0,-0.5143107668354088,0.4956085571323032,-1.009919323967712
530,Exp1,d11032021,52UGI,interference,0.0,1.0,2.0,52.0,51.0,Picaa1.jpg,Gora1n.jpg,52.0,37.0,0.0,,,1.0,52.0,51.0,1.23,-0.0486062277096548,15.0,0.0467555242577645,-0.7948439123819954,0.8415994366397599
531,Exp1,d11032021,52UGI,interference,1.0,1.0,3.0,4.0,22.0,Mackb1.jpg,Macb1n.jpg,37.0,65.0,1.0,,0.0,0.0,22.0,4.0,1.948,0.8687897371236103,-28.0,-0.7948439123819954,0.7761417026788898,-1.5709856150608852
532,Exp1,d11032021,52UGI,interference,0.0,1.0,4.0,13.0,59.0,Picak1.jpg,Kraa1n.jpg,33.0,65.0,0.0,,,0.0,59.0,13.0,1.546,0.3551502136375761,-32.0,-1.0192704288192649,0.7761417026788898,-1.7954121314981544
533,Exp1,d11032021,52UGI,interference,0.0,1.0,5.0,56.0,47.0,Luisc1.jpg,Kupkd1.jpg,38.0,66.0,0.0,,,0.0,47.0,56.0,0.765,-0.6427414974136497,-28.0,-0.7387372832726781,0.8322483317882072,-1.5709856150608852
534,Exp1,d11032021,52UGI,interference,1.0,1.0,6.0,55.0,49.0,Lewic1.jpg,Hinda1.jpg,44.0,54.0,1.0,,1.0,0.0,49.0,55.0,1.595,0.4177580162515454,-10.0,-0.402097508616774,0.1589687824763992,-0.5610662910931733
535,Exp1,d11032021,52UGI,interference,1.0,1.0,7.0,27.0,33.0,Vinb1n.jpg,Kupc1n.jpg,58.0,65.0,1.0,,0.0,1.0,27.0,33.0,1.263,-0.0064417892145327,-7.0,0.3833952989136685,0.7761417026788898,-0.3927464037652213
536,Exp1,d11032021,52UGI,interference,1.0,1.0,8.0,25.0,17.0,Clifa1.jpg,Picab1.jpg,41.0,59.0,1.0,,0.0,1.0,25.0,17.0,1.719,0.5761940881726109,-18.0,-0.5704173959447261,0.4395019280229859,-1.009919323967712
537,Exp1,d11032021,52UGI,interference,0.0,1.0,9.0,39.0,10.0,Dekb1n.jpg,Stera1.jpg,41.0,64.0,0.0,,,0.0,10.0,39.0,4.238,3.794746226633607,-23.0,-0.5704173959447261,0.7200350735695725,-1.2904524695142987
538,Exp1,d11032021,52UGI,interference,0.0,1.0,10.0,57.0,41.0,Lewc1n.jpg,Vincb1.jpg,35.0,65.0,0.0,,,0.0,41.0,57.0,1.147,-0.1546561790761743,-30.0,-0.90705717060063,0.7761417026788898,-1.6831988732795198
539,Exp1,d11032021,52UGI,interference,1.0,1.0,11.0,26.0,44.0,Clib1n.jpg,Lassf1.jpg,59.0,62.0,1.0,,0.0,1.0,26.0,44.0,1.746,0.6106922651231653,-3.0,0.4395019280229859,0.6078218153509378,-0.1683198873279519
540,Exp1,d11032021,52UGI,interference,1.0,1.0,12.0,32.0,7.0,Macka1.jpg,Pica1n.jpg,68.0,59.0,1.0,,1.0,0.0,7.0,32.0,0.939,-0.4204199126211872,9.0,0.9444615900068418,0.4395019280229859,0.5049596619838559
541,Exp1,d11032021,52UGI,interference,1.0,1.0,13.0,18.0,28.0,Krasb1.jpg,Krasa1.jpg,67.0,41.0,1.0,,1.0,1.0,18.0,28.0,4.464,4.083508744812323,26.0,0.8883549608975245,-0.5704173959447261,1.4587723568422506
542,Exp1,d11032021,52UGI,interference,0.0,1.0,14.0,23.0,5.0,Lewib1.jpg,Kupb1n.jpg,60.0,61.0,0.0,,,1.0,23.0,5.0,0.779,-0.6248535538096585,-1.0,0.4956085571323032,0.5517151862416205,-0.0561066291093172
543,Exp1,d11032021,52UGI,interference,1.0,1.0,15.0,21.0,3.0,Lewb1n.jpg,Fogeg1.jpg,61.0,35.0,1.0,,1.0,0.0,3.0,21.0,0.963,-0.3897548664429165,26.0,0.5517151862416205,-0.90705717060063,1.4587723568422506
