,Exp,group,PID,phase,trial,condition,stimulus_id,painting,rating,is_chosen,outcome,is_novel,stim_type,outcome_eval_gain,outcome_eval_acc,outcome_eval_rt,zscored_outcome_eval_rt,outcome_eval_confidence,outcome_eval_confidence_rt,zscored_outcome_eval_confidence_rt
0,Exp1,d11032021,ZGrrY,outcome_evaluation,0.0,1.0,32.0,Macka1.jpg,40.0,1.0,-1.0,0.0,chosen,0.0,1.0,3137.0,2.6473410601185274,5.0,3442.0,3.496234263458203
1,Exp1,d11032021,ZGrrY,outcome_evaluation,1.0,0.0,3.0,Fogeg1.jpg,65.0,1.0,1.0,0.0,chosen,1.0,1.0,1230.0,-0.7953125602885998,6.0,1930.0,-0.0263846955761002
2,Exp1,d11032021,ZGrrY,outcome_evaluation,2.0,0.0,56.0,Luisc1.jpg,36.0,1.0,1.0,0.0,chosen,1.0,1.0,1148.0,-0.94334486069415,6.0,1973.0,0.0737956055075472
3,Exp1,d11032021,ZGrrY,outcome_evaluation,3.0,0.0,15.0,Clia1n.jpg,34.0,0.0,1.0,0.0,unchosen,1.0,1.0,2664.0,1.7934474248523653,3.0,2257.0,0.7354515475483819
4,Exp1,d11032021,ZGrrY,outcome_evaluation,4.0,1.0,1.0,Lewia1.jpg,65.0,1.0,1.0,0.0,chosen,1.0,1.0,1068.0,-1.08776661718737,6.0,2175.0,0.5444100431563099
5,Exp1,d11032021,ZGrrY,outcome_evaluation,5.0,0.0,35.0,Wdeka1.jpg,65.0,1.0,1.0,0.0,chosen,1.0,1.0,1036.0,-1.1455353197846578,6.0,1665.0,-0.6437749231846257
6,Exp1,d11032021,ZGrrY,outcome_evaluation,6.0,0.0,47.0,Kupkd1.jpg,31.0,0.0,1.0,0.0,unchosen,0.0,0.0,2379.0,1.2789449173452698,2.0,2014.0,0.1693163577035832
7,Exp1,d11032021,ZGrrY,outcome_evaluation,7.0,1.0,37.0,Mondb1.jpg,58.0,,1.0,1.0,novel,0.0,0.0,2516.0,1.5262671753399086,3.0,3467.0,3.554478624553347
8,Exp1,d11032021,ZGrrY,outcome_evaluation,8.0,1.0,36.0,Gorkf1.jpg,35.0,0.0,1.0,0.0,unchosen,1.0,1.0,2048.0,0.6813998998545728,2.0,2054.0,0.2625073354558134
9,Exp1,d11032021,ZGrrY,outcome_evaluation,9.0,1.0,17.0,Picab1.jpg,65.0,1.0,-1.0,0.0,chosen,0.0,1.0,1770.0,0.1795342960406339,6.0,1803.0,-0.3222660499394313
10,Exp1,d11032021,ZGrrY,outcome_evaluation,10.0,1.0,55.0,Lewic1.jpg,59.0,,-1.0,1.0,novel,1.0,0.0,1850.0,0.3239560525338538,3.0,1808.0,-0.3106171777204025
11,Exp1,d11032021,ZGrrY,outcome_evaluation,11.0,1.0,59.0,Kraa1n.jpg,38.0,,-1.0,1.0,novel,1.0,0.0,2061.0,0.704868435284721,2.0,1803.0,-0.3222660499394313
12,Exp1,d11032021,ZGrrY,outcome_evaluation,12.0,1.0,27.0,Vinb1n.jpg,58.0,1.0,1.0,0.0,chosen,1.0,1.0,956.0,-1.2899570762778776,6.0,1712.0,-0.5342755243257551
13,Exp1,d11032021,ZGrrY,outcome_evaluation,13.0,1.0,48.0,Picb1n.jpg,66.0,1.0,1.0,0.0,chosen,1.0,1.0,1539.0,-0.2374835258335382,6.0,1691.0,-0.5832007876456761
14,Exp1,d11032021,ZGrrY,outcome_evaluation,14.0,1.0,31.0,Maca1n.jpg,39.0,1.0,-1.0,0.0,chosen,0.0,1.0,1251.0,-0.7574018492091296,6.0,2464.0,1.2177148574161736
15,Exp1,d11032021,ZGrrY,outcome_evaluation,15.0,0.0,5.0,Kupb1n.jpg,62.0,1.0,-1.0,0.0,chosen,0.0,1.0,1573.0,-0.1761042793239198,5.0,1858.0,-0.1941284555301147
16,Exp1,d11032021,ZGrrY,outcome_evaluation,16.0,1.0,4.0,Mackb1.jpg,41.0,,1.0,1.0,novel,0.0,0.0,2354.0,1.2338131184411385,2.0,2225.0,0.6608987653465977
17,Exp1,d11032021,ZGrrY,outcome_evaluation,17.0,0.0,57.0,Lewc1n.jpg,59.0,1.0,-1.0,0.0,chosen,0.0,1.0,1162.0,-0.9180710533078366,6.0,1762.0,-0.4177868021354673
18,Exp1,d11032021,ZGrrY,outcome_evaluation,18.0,0.0,51.0,Gora1n.jpg,25.0,0.0,-1.0,0.0,unchosen,0.0,1.0,1912.0,0.4358829138160991,2.0,2339.0,0.926493051940454
19,Exp1,d11032021,ZGrrY,outcome_evaluation,19.0,1.0,10.0,Stera1.jpg,62.0,0.0,1.0,0.0,unchosen,1.0,1.0,1900.0,0.4142196503421161,2.0,1792.0,-0.3478935688212946
20,Exp1,d11032021,ZGrrY,outcome_evaluation,20.0,1.0,53.0,Gorka1.jpg,54.0,0.0,-1.0,0.0,unchosen,0.0,1.0,1420.0,-0.4523108886172027,2.0,1690.0,-0.5855305620894817
21,Exp1,d11032021,ZGrrY,outcome_evaluation,21.0,0.0,21.0,Lewb1n.jpg,38.0,0.0,1.0,0.0,unchosen,1.0,1.0,1434.0,-0.4270370812308892,5.0,1677.0,-0.6158176298589566
22,Exp1,d11032021,ZGrrY,outcome_evaluation,22.0,1.0,26.0,Clib1n.jpg,64.0,,1.0,1.0,novel,1.0,1.0,1630.0,-0.0732037778225007,2.0,1950.0,0.0202107933000148
23,Exp1,d11032021,ZGrrY,outcome_evaluation,23.0,0.0,45.0,Klia1n.jpg,42.0,0.0,-1.0,0.0,unchosen,0.0,1.0,1405.0,-0.4793899679596814,2.0,2012.0,0.1646568088159717
24,Exp1,d11032021,ZGrrY,outcome_evaluation,24.0,0.0,2.0,Dekob1.jpg,36.0,0.0,1.0,0.0,unchosen,1.0,1.0,1344.0,-0.5895115572857615,3.0,1987.0,0.1064124477208278
25,Exp1,d11032021,ZGrrY,outcome_evaluation,25.0,1.0,14.0,Kupkb1.jpg,29.0,0.0,-1.0,0.0,unchosen,0.0,1.0,1154.0,-0.9325132289571586,2.0,1625.0,-0.736965900936856
26,Exp1,d11032021,ZGrrY,outcome_evaluation,26.0,0.0,11.0,Wdekb1.jpg,22.0,0.0,-1.0,0.0,unchosen,0.0,1.0,1082.0,-1.0624928098010564,3.0,1704.0,-0.5529137198762012
27,Exp1,d11032021,ZGrrY,outcome_evaluation,27.0,1.0,49.0,Hinda1.jpg,45.0,,1.0,1.0,novel,1.0,1.0,3112.0,2.602209261214396,2.0,1690.0,-0.5855305620894817
28,Exp1,d11032021,ZGrrY,outcome_evaluation,28.0,1.0,0.0,Gorkc1.jpg,19.0,0.0,-1.0,0.0,unchosen,1.0,0.0,1387.0,-0.5118848631706558,2.0,1682.0,-0.6041687576399278
29,Exp1,d11032021,ZGrrY,outcome_evaluation,29.0,0.0,33.0,Kupc1n.jpg,57.0,0.0,-1.0,0.0,unchosen,1.0,0.0,1439.0,-0.418010721450063,3.0,1506.0,-1.0142090597497408
30,Exp1,d11032021,ZGrrY,outcome_evaluation,30.0,1.0,34.0,Monb1n.jpg,35.0,,-1.0,1.0,novel,0.0,1.0,2046.0,0.6777893559422423,2.0,2286.0,0.8030150064187489
31,Exp1,d11032021,ZGrrY,outcome_evaluation,31.0,1.0,58.0,Mackc1.jpg,28.0,1.0,1.0,0.0,chosen,1.0,1.0,1094.0,-1.0408295463270734,6.0,1432.0,-1.186612368591367
32,Exp1,d11032021,ZGrrY,outcome_evaluation,32.0,0.0,39.0,Dekb1n.jpg,36.0,1.0,-1.0,0.0,chosen,0.0,1.0,2071.0,0.7229211548463735,6.0,1672.0,-0.6274665020779854
33,Exp1,d11032021,ZGrrY,outcome_evaluation,33.0,1.0,40.0,Krab1n.jpg,38.0,,-1.0,1.0,novel,1.0,0.0,1532.0,-0.250120429526695,2.0,2075.0,0.3114325987757343
34,Exp1,d11032021,ZGrrY,outcome_evaluation,34.0,0.0,12.0,Kupkc1.jpg,17.0,1.0,-1.0,0.0,chosen,0.0,1.0,1626.0,-0.0804248656471617,6.0,1520.0,-0.9815922175364604
35,Exp1,d11032021,ZGrrY,outcome_evaluation,35.0,1.0,22.0,Macb1n.jpg,59.0,0.0,1.0,0.0,unchosen,1.0,1.0,1495.0,-0.3169154919048091,3.0,2105.0,0.381325832089907
36,Exp1,d11032021,ZGrrY,outcome_evaluation,36.0,0.0,23.0,Lewib1.jpg,35.0,1.0,1.0,0.0,chosen,1.0,1.0,1074.0,-1.0769349854503785,6.0,1571.0,-0.8627737209023668
37,Exp1,d11032021,ZGrrY,outcome_evaluation,37.0,1.0,16.0,Lewa1n.jpg,32.0,0.0,1.0,0.0,unchosen,1.0,1.0,1464.0,-0.3728789225459318,5.0,1550.0,-0.9116989842222876
38,Exp1,d11032021,ZGrrY,outcome_evaluation,38.0,1.0,18.0,Krasb1.jpg,64.0,1.0,-1.0,0.0,chosen,1.0,0.0,2103.0,0.7806898574436615,4.0,1920.0,-0.0496824400141578
39,Exp1,d11032021,ZGrrY,outcome_evaluation,39.0,1.0,50.0,Gorke1.jpg,37.0,0.0,-1.0,0.0,unchosen,0.0,1.0,1356.0,-0.5678482938117786,2.0,1765.0,-0.41079747880405
40,Exp1,d11042021,l6WpQ,outcome_evaluation,0.0,1.0,31.0,Maca1n.jpg,85.0,,1.0,1.0,novel,1.0,1.0,3748.0,2.831026955530981,1.0,3929.0,3.5753700732412086
41,Exp1,d11042021,l6WpQ,outcome_evaluation,1.0,0.0,55.0,Lewic1.jpg,85.0,1.0,-1.0,0.0,chosen,0.0,1.0,3092.0,1.9755899758772169,5.0,2683.0,1.464262911086203
42,Exp1,d11042021,l6WpQ,outcome_evaluation,2.0,1.0,17.0,Picab1.jpg,93.0,,1.0,1.0,novel,1.0,1.0,3184.0,2.0955597961945127,1.0,2501.0,1.155898943580416
43,Exp1,d11042021,l6WpQ,outcome_evaluation,3.0,0.0,0.0,Gorkc1.jpg,95.0,1.0,1.0,0.0,chosen,1.0,1.0,1929.0,0.4590149646922641,3.0,1976.0,0.2663874988521834
44,Exp1,d11042021,l6WpQ,outcome_evaluation,4.0,1.0,14.0,Kupkb1.jpg,76.0,0.0,1.0,0.0,unchosen,0.0,0.0,1078.0,-0.6507058732427268,2.0,2237.0,0.7086017599456477
45,Exp1,d11042021,l6WpQ,outcome_evaluation,5.0,0.0,43.0,Picac1.jpg,94.0,1.0,1.0,0.0,chosen,0.0,0.0,1795.0,0.28427631336055,4.0,2172.0,0.5984717715507236
46,Exp1,d11042021,l6WpQ,outcome_evaluation,6.0,1.0,12.0,Kupkc1.jpg,31.0,0.0,-1.0,0.0,unchosen,0.0,1.0,1948.0,0.4837913406273579,3.0,1503.0,-0.5350199551601099
47,Exp1,d11042021,l6WpQ,outcome_evaluation,7.0,0.0,7.0,Pica1n.jpg,82.0,0.0,1.0,0.0,unchosen,1.0,1.0,1967.0,0.5085677165624518,3.0,1280.0,-0.9128505307303878
48,Exp1,d11042021,l6WpQ,outcome_evaluation,8.0,0.0,6.0,Wdekc1.jpg,84.0,0.0,-1.0,0.0,unchosen,1.0,0.0,1378.0,-0.2594999374254562,2.0,2547.0,1.233837089213747
49,Exp1,d11042021,l6WpQ,outcome_evaluation,9.0,1.0,46.0,Deka1n.jpg,85.0,0.0,1.0,0.0,unchosen,0.0,0.0,1229.0,-0.4537988855480339,3.0,1274.0,-0.9230163758129962
50,Exp1,d11042021,l6WpQ,outcome_evaluation,10.0,1.0,1.0,Lewia1.jpg,94.0,1.0,-1.0,0.0,chosen,0.0,1.0,2151.0,0.7485073571970444,2.0,1881.0,0.1054282850442175
51,Exp1,d11042021,l6WpQ,outcome_evaluation,11.0,1.0,10.0,Stera1.jpg,95.0,1.0,1.0,0.0,chosen,1.0,1.0,826.0,-0.979318859329234,2.0,1329.0,-0.8298294625557527
52,Exp1,d11042021,l6WpQ,outcome_evaluation,12.0,0.0,30.0,Lasse1.jpg,92.0,1.0,1.0,0.0,chosen,1.0,1.0,893.0,-0.8919495336633769,6.0,1970.0,0.256221653769575
53,Exp1,d11042021,l6WpQ,outcome_evaluation,13.0,1.0,27.0,Vinb1n.jpg,90.0,,-1.0,1.0,novel,1.0,0.0,2093.0,0.6728742096057054,2.0,1323.0,-0.8399953076383612
54,Exp1,d11042021,l6WpQ,outcome_evaluation,14.0,0.0,50.0,Gorke1.jpg,79.0,0.0,-1.0,0.0,unchosen,1.0,0.0,1828.0,0.3273089663004497,2.0,1382.0,-0.7400311643260454
55,Exp1,d11042021,l6WpQ,outcome_evaluation,15.0,0.0,40.0,Krab1n.jpg,95.0,1.0,-1.0,0.0,chosen,0.0,1.0,1306.0,-0.3533893620216011,3.0,1313.0,-0.8569383827760417
56,Exp1,d11042021,l6WpQ,outcome_evaluation,16.0,1.0,22.0,Macb1n.jpg,86.0,,1.0,1.0,novel,1.0,1.0,1236.0,-0.4446707470456309,2.0,1290.0,-0.8959074555927072
57,Exp1,d11042021,l6WpQ,outcome_evaluation,17.0,0.0,39.0,Dekb1n.jpg,84.0,0.0,1.0,0.0,unchosen,1.0,1.0,1301.0,-0.3599094609518889,1.0,2252.0,0.7340163726521686
58,Exp1,d11042021,l6WpQ,outcome_evaluation,18.0,0.0,25.0,Clifa1.jpg,33.0,0.0,1.0,0.0,unchosen,0.0,0.0,1386.0,-0.2490677791369956,1.0,1513.0,-0.5180768800224294
59,Exp1,d11042021,l6WpQ,outcome_evaluation,19.0,1.0,29.0,Clifb1.jpg,38.0,0.0,-1.0,0.0,unchosen,1.0,0.0,1260.0,-0.4133742721802492,2.0,1636.0,-0.3096770558289577
60,Exp1,d11042021,l6WpQ,outcome_evaluation,20.0,0.0,51.0,Gora1n.jpg,91.0,0.0,1.0,0.0,unchosen,0.0,0.0,1024.0,-0.7211229416898355,1.0,1583.0,-0.399475354058665
61,Exp1,d11042021,l6WpQ,outcome_evaluation,21.0,1.0,23.0,Lewib1.jpg,88.0,1.0,-1.0,0.0,chosen,0.0,1.0,1577.0,0.0,3.0,2791.0,1.647248122573154
62,Exp1,d11042021,l6WpQ,outcome_evaluation,22.0,0.0,32.0,Macka1.jpg,89.0,1.0,1.0,0.0,chosen,1.0,1.0,994.0,-0.7602435352715625,6.0,2222.0,0.6831871472391267
63,Exp1,d11042021,l6WpQ,outcome_evaluation,23.0,1.0,19.0,Macc1n.jpg,94.0,1.0,-1.0,0.0,chosen,0.0,1.0,1191.0,-0.5033516374182215,6.0,1656.0,-0.2757909055535965
64,Exp1,d11042021,l6WpQ,outcome_evaluation,24.0,1.0,36.0,Gorkf1.jpg,80.0,1.0,-1.0,0.0,chosen,0.0,1.0,1215.0,-0.4720551625528398,2.0,1392.0,-0.7230880891883649
65,Exp1,d11042021,l6WpQ,outcome_evaluation,25.0,0.0,42.0,Picc1n.jpg,78.0,0.0,-1.0,0.0,unchosen,0.0,1.0,1241.0,-0.4381506481153431,4.0,1732.0,-0.1470235345072237
66,Exp1,d11042021,l6WpQ,outcome_evaluation,26.0,0.0,47.0,Kupkd1.jpg,86.0,1.0,-1.0,0.0,chosen,0.0,1.0,957.0,-0.8084922673556926,2.0,1636.0,-0.3096770558289577
67,Exp1,d11042021,l6WpQ,outcome_evaluation,27.0,1.0,8.0,Klina1.jpg,95.0,,-1.0,1.0,novel,0.0,1.0,1546.0,-0.0404246133677846,3.0,1140.0,-1.1500535826579166
68,Exp1,d11042021,l6WpQ,outcome_evaluation,28.0,1.0,56.0,Luisc1.jpg,83.0,1.0,1.0,0.0,chosen,1.0,1.0,4118.0,3.313514276372282,3.0,1903.0,0.1427030503471149
69,Exp1,d11042021,l6WpQ,outcome_evaluation,29.0,1.0,28.0,Krasa1.jpg,89.0,,-1.0,1.0,novel,0.0,1.0,979.0,-0.7798038320624261,2.0,1775.0,-0.074168311415197
70,Exp1,d11042021,l6WpQ,outcome_evaluation,30.0,1.0,53.0,Gorka1.jpg,67.0,,1.0,1.0,novel,0.0,0.0,1062.0,-0.6715701898196479,2.0,1664.0,-0.262236445443452
71,Exp1,d11042021,l6WpQ,outcome_evaluation,31.0,1.0,24.0,Dekoa1.jpg,74.0,0.0,-1.0,0.0,unchosen,1.0,0.0,1264.0,-0.4081581930360189,2.0,1203.0,-1.0433122092905287
72,Exp1,d11042021,l6WpQ,outcome_evaluation,32.0,1.0,26.0,Clib1n.jpg,73.0,0.0,-1.0,0.0,unchosen,0.0,1.0,853.0,-0.9441103251056796,3.0,1760.0,-0.099582924121718
73,Exp1,d11042021,l6WpQ,outcome_evaluation,33.0,1.0,34.0,Monb1n.jpg,74.0,0.0,1.0,0.0,unchosen,0.0,0.0,654.0,-1.2036102625311358,1.0,1479.0,-0.5756833354905434
74,Exp1,d11042021,l6WpQ,outcome_evaluation,34.0,0.0,45.0,Klia1n.jpg,70.0,0.0,-1.0,0.0,unchosen,0.0,1.0,1239.0,-0.4407586876874582,3.0,2048.0,0.3883776398434839
75,Exp1,d11042021,l6WpQ,outcome_evaluation,35.0,1.0,20.0,Gorc1n.jpg,87.0,1.0,1.0,0.0,chosen,1.0,1.0,1656.0,0.1030175630985479,2.0,2294.0,0.8051772882304271
76,Exp1,d11042021,l6WpQ,outcome_evaluation,36.0,1.0,9.0,Lassc1.jpg,80.0,0.0,1.0,0.0,unchosen,0.0,0.0,1612.0,0.0456406925120149,1.0,1533.0,-0.4841907297470681
77,Exp1,d11042021,l6WpQ,outcome_evaluation,37.0,1.0,57.0,Lewc1n.jpg,83.0,1.0,1.0,0.0,chosen,1.0,1.0,1778.0,0.2621079769975713,3.0,1091.0,-1.2330746508325516
78,Exp1,d11042021,l6WpQ,outcome_evaluation,38.0,1.0,16.0,Lewa1n.jpg,84.0,,-1.0,1.0,novel,1.0,0.0,1348.0,-0.2986205310071832,3.0,1061.0,-1.2839038762455934
79,Exp1,d11042021,l6WpQ,outcome_evaluation,39.0,0.0,38.0,Lasc1n.jpg,94.0,1.0,-1.0,0.0,chosen,0.0,1.0,1144.0,-0.5646405673629272,5.0,2797.0,1.6574139676557624
80,Exp1,d11032021,GCq3m,outcome_evaluation,0.0,1.0,28.0,Krasa1.jpg,8.0,0.0,-1.0,0.0,unchosen,0.0,1.0,1286.0,-0.4224689549365577,2.0,3560.0,1.2711671432849276
81,Exp1,d11032021,GCq3m,outcome_evaluation,1.0,1.0,12.0,Kupkc1.jpg,10.0,0.0,-1.0,0.0,unchosen,1.0,0.0,1596.0,0.7597957801601046,4.0,2620.0,-0.3651178477288785
82,Exp1,d11032021,GCq3m,outcome_evaluation,2.0,1.0,23.0,Lewib1.jpg,6.0,,-1.0,1.0,novel,0.0,1.0,1319.0,-0.296614967006913,5.0,5153.0,4.044147984439175
83,Exp1,d11032021,GCq3m,outcome_evaluation,3.0,0.0,51.0,Gora1n.jpg,6.0,0.0,1.0,0.0,unchosen,0.0,0.0,1342.0,-0.2088985511771606,5.0,2538.0,-0.5078576022641255
84,Exp1,d11032021,GCq3m,outcome_evaluation,4.0,0.0,3.0,Fogeg1.jpg,18.0,1.0,1.0,0.0,chosen,1.0,1.0,1041.0,-1.3568394713839198,6.0,2536.0,-0.5113390596918144
85,Exp1,d11032021,GCq3m,outcome_evaluation,5.0,1.0,0.0,Gorkc1.jpg,7.0,,1.0,1.0,novel,1.0,1.0,1851.0,1.732303868707359,4.0,2507.0,-0.5618201923933042
86,Exp1,d11032021,GCq3m,outcome_evaluation,6.0,0.0,35.0,Wdeka1.jpg,5.0,1.0,-1.0,0.0,chosen,1.0,0.0,981.0,-1.5856649039832738,6.0,2523.0,-0.5339685329717926
87,Exp1,d11032021,GCq3m,outcome_evaluation,7.0,0.0,14.0,Kupkb1.jpg,13.0,1.0,1.0,0.0,chosen,1.0,1.0,1185.0,-0.8076584331454703,6.0,2428.0,-0.6993377607870177
88,Exp1,d11032021,GCq3m,outcome_evaluation,8.0,0.0,46.0,Deka1n.jpg,19.0,1.0,1.0,0.0,chosen,1.0,1.0,1062.0,-1.276750569974146,6.0,3455.0,1.0883906283312577
89,Exp1,d11032021,GCq3m,outcome_evaluation,9.0,1.0,13.0,Picak1.jpg,7.0,0.0,-1.0,0.0,unchosen,0.0,1.0,1182.0,-0.8190997047754379,3.0,4126.0,2.2564195953209003
90,Exp1,d11032021,GCq3m,outcome_evaluation,10.0,0.0,4.0,Mackb1.jpg,5.0,0.0,-1.0,0.0,unchosen,1.0,0.0,1523.0,0.4813915038308906,4.0,3118.0,0.5017650517656698
91,Exp1,d11032021,GCq3m,outcome_evaluation,11.0,1.0,27.0,Vinb1n.jpg,6.0,1.0,-1.0,0.0,chosen,0.0,1.0,1356.0,-0.1555059502373113,3.0,2341.0,-0.850781158891487
92,Exp1,d11032021,GCq3m,outcome_evaluation,12.0,0.0,25.0,Clifa1.jpg,8.0,0.0,1.0,0.0,unchosen,0.0,0.0,1249.0,-0.5635779717061593,2.0,2493.0,-0.5861903943871268
93,Exp1,d11032021,GCq3m,outcome_evaluation,13.0,1.0,56.0,Luisc1.jpg,14.0,1.0,-1.0,0.0,chosen,0.0,1.0,2254.0,3.26924802433302,6.0,3330.0,0.8707995391006984
94,Exp1,d11032021,GCq3m,outcome_evaluation,14.0,0.0,41.0,Vincb1.jpg,10.0,1.0,-1.0,0.0,chosen,1.0,0.0,1501.0,0.3974888452111275,6.0,3109.0,0.4860984933410695
95,Exp1,d11032021,GCq3m,outcome_evaluation,15.0,1.0,32.0,Macka1.jpg,12.0,,-1.0,1.0,novel,1.0,0.0,1535.0,0.5271565903507615,5.0,2935.0,0.1832116971321309
96,Exp1,d11032021,GCq3m,outcome_evaluation,16.0,1.0,42.0,Picc1n.jpg,5.0,0.0,-1.0,0.0,unchosen,1.0,0.0,1285.0,-0.4262827121465469,4.0,2493.0,-0.5861903943871268
97,Exp1,d11032021,GCq3m,outcome_evaluation,17.0,1.0,33.0,Kupc1n.jpg,8.0,1.0,-1.0,0.0,chosen,1.0,0.0,1222.0,-0.6665494163758686,5.0,2159.0,-1.1675937848111813
98,Exp1,d11032021,GCq3m,outcome_evaluation,18.0,0.0,34.0,Monb1n.jpg,11.0,1.0,1.0,0.0,chosen,1.0,1.0,1880.0,1.842902827797047,5.0,3135.0,0.5313574399010259
99,Exp1,d11032021,GCq3m,outcome_evaluation,19.0,1.0,59.0,Kraa1n.jpg,12.0,1.0,-1.0,0.0,chosen,1.0,0.0,1272.0,-0.4758615558764069,5.0,2557.0,-0.4747837567010804
100,Exp1,d11032021,GCq3m,outcome_evaluation,20.0,1.0,22.0,Macb1n.jpg,10.0,0.0,1.0,0.0,unchosen,0.0,0.0,1255.0,-0.5406954284462239,3.0,2587.0,-0.4225618952857461
101,Exp1,d11032021,GCq3m,outcome_evaluation,21.0,1.0,17.0,Picab1.jpg,14.0,1.0,1.0,0.0,chosen,1.0,1.0,1311.0,-0.3271250246868268,5.0,2740.0,-0.1562304020675416
102,Exp1,d11032021,GCq3m,outcome_evaluation,22.0,0.0,53.0,Gorka1.jpg,8.0,0.0,-1.0,0.0,unchosen,0.0,1.0,1271.0,-0.4796753130863961,3.0,2885.0,0.0961752614399072
103,Exp1,d11032021,GCq3m,outcome_evaluation,23.0,1.0,10.0,Stera1.jpg,8.0,1.0,1.0,0.0,chosen,1.0,1.0,1252.0,-0.5521367000761916,5.0,2528.0,-0.5252648894025702
104,Exp1,d11032021,GCq3m,outcome_evaluation,24.0,1.0,11.0,Wdekb1.jpg,10.0,0.0,1.0,0.0,unchosen,0.0,0.0,1385.0,-0.0449069911476235,3.0,2425.0,-0.7045599469285511
105,Exp1,d11032021,GCq3m,outcome_evaluation,25.0,0.0,47.0,Kupkd1.jpg,12.0,0.0,-1.0,0.0,unchosen,1.0,0.0,1573.0,0.6720793643303523,5.0,2389.0,-0.7672261806269521
106,Exp1,d11032021,GCq3m,outcome_evaluation,26.0,0.0,48.0,Picb1n.jpg,10.0,0.0,1.0,0.0,unchosen,1.0,1.0,1291.0,-0.4034001688866115,5.0,2700.0,-0.2258595506213205
107,Exp1,d11032021,GCq3m,outcome_evaluation,27.0,1.0,45.0,Klia1n.jpg,11.0,,1.0,1.0,novel,0.0,0.0,1626.0,0.8742084964597817,4.0,3204.0,0.6514677211562946
108,Exp1,d11032021,GCq3m,outcome_evaluation,28.0,0.0,1.0,Lewia1.jpg,9.0,1.0,-1.0,0.0,chosen,0.0,1.0,1506.0,0.4165576312610736,5.0,2277.0,-0.9621877965775332
109,Exp1,d11032021,GCq3m,outcome_evaluation,29.0,1.0,44.0,Lassf1.jpg,11.0,,1.0,1.0,novel,1.0,1.0,1121.0,-1.0517388945847812,5.0,2749.0,-0.1405638436429413
110,Exp1,d11032021,GCq3m,outcome_evaluation,30.0,1.0,43.0,Picac1.jpg,14.0,0.0,1.0,0.0,unchosen,0.0,0.0,1632.0,0.897091039719717,4.0,2621.0,-0.363377119015034
111,Exp1,d11032021,GCq3m,outcome_evaluation,31.0,1.0,21.0,Lewb1n.jpg,8.0,0.0,1.0,0.0,unchosen,0.0,0.0,1265.0,-0.5025578563463315,3.0,2858.0,0.0491755861661064
112,Exp1,d11032021,GCq3m,outcome_evaluation,32.0,1.0,26.0,Clib1n.jpg,12.0,1.0,1.0,0.0,chosen,1.0,1.0,1182.0,-0.8190997047754379,5.0,3940.0,1.932644054545828
113,Exp1,d11032021,GCq3m,outcome_evaluation,33.0,1.0,8.0,Klina1.jpg,9.0,,-1.0,1.0,novel,0.0,1.0,1364.0,-0.1249958925573974,4.0,2484.0,-0.6018569528117271
114,Exp1,d11032021,GCq3m,outcome_evaluation,34.0,1.0,29.0,Clifb1.jpg,14.0,,-1.0,1.0,novel,0.0,1.0,1407.0,0.0389956674721395,3.0,2617.0,-0.370340033870412
115,Exp1,d11032021,GCq3m,outcome_evaluation,35.0,0.0,40.0,Krab1n.jpg,5.0,0.0,1.0,0.0,unchosen,0.0,0.0,1472.0,0.2868898861214397,4.0,2755.0,-0.1301194713598744
116,Exp1,d11032021,GCq3m,outcome_evaluation,36.0,1.0,50.0,Gorke1.jpg,8.0,1.0,1.0,0.0,chosen,1.0,1.0,1637.0,0.9161598257696631,5.0,2558.0,-0.4730430279872359
117,Exp1,d11032021,GCq3m,outcome_evaluation,37.0,0.0,5.0,Kupb1n.jpg,15.0,1.0,-1.0,0.0,chosen,0.0,1.0,1956.0,2.1327483757562287,4.0,2328.0,-0.8734106321714651
118,Exp1,d11032021,GCq3m,outcome_evaluation,38.0,1.0,6.0,Wdekc1.jpg,5.0,,1.0,1.0,novel,0.0,0.0,1294.0,-0.3919588972566438,4.0,2729.0,-0.1753784179198308
119,Exp1,d11032021,GCq3m,outcome_evaluation,39.0,0.0,36.0,Gorkf1.jpg,7.0,0.0,-1.0,0.0,unchosen,0.0,1.0,1149.0,-0.9449536927050828,4.0,2700.0,-0.2258595506213205
120,Exp1,d11032021,qBGkp,outcome_evaluation,0.0,1.0,8.0,Klina1.jpg,2.0,1.0,-1.0,0.0,chosen,0.0,1.0,2411.0,1.51726414524819,1.0,3718.0,0.3611516615432774
121,Exp1,d11032021,qBGkp,outcome_evaluation,1.0,1.0,20.0,Gorc1n.jpg,1.0,0.0,-1.0,0.0,unchosen,0.0,1.0,1466.0,0.1657881999556013,1.0,2080.0,-0.1130593820510939
122,Exp1,d11032021,qBGkp,outcome_evaluation,2.0,1.0,26.0,Clib1n.jpg,20.0,,-1.0,1.0,novel,1.0,0.0,1585.0,0.3359740597331866,3.0,1955.0,-0.1492476485036559
123,Exp1,d11032021,qBGkp,outcome_evaluation,3.0,0.0,4.0,Mackb1.jpg,3.0,0.0,1.0,0.0,unchosen,0.0,0.0,1316.0,-0.0487317913606825,1.0,2032.0,-0.1269556763688777
124,Exp1,d11032021,qBGkp,outcome_evaluation,4.0,1.0,46.0,Deka1n.jpg,6.0,,-1.0,1.0,novel,0.0,1.0,1129.0,-0.3161667138683165,2.0,2096.0,-0.108427283945166
125,Exp1,d11032021,qBGkp,outcome_evaluation,5.0,1.0,34.0,Monb1n.jpg,18.0,1.0,1.0,0.0,chosen,1.0,1.0,1213.0,-0.1960355187311975,6.0,2010.0,-0.1333248112645286
126,Exp1,d11032021,qBGkp,outcome_evaluation,6.0,1.0,15.0,Clia1n.jpg,20.0,0.0,1.0,0.0,unchosen,0.0,0.0,1276.0,-0.1059371223783582,1.0,2054.0,-0.1205865414732268
127,Exp1,d11032021,qBGkp,outcome_evaluation,7.0,1.0,14.0,Kupkb1.jpg,26.0,1.0,-1.0,0.0,chosen,0.0,1.0,817.0,-0.762368295806187,6.0,2646.0,0.0508010884461063
128,Exp1,d11032021,qBGkp,outcome_evaluation,8.0,0.0,17.0,Picab1.jpg,20.0,1.0,1.0,0.0,chosen,1.0,1.0,859.0,-0.7023026982376276,6.0,1787.0,-0.1978846786158991
129,Exp1,d11032021,qBGkp,outcome_evaluation,9.0,0.0,18.0,Krasb1.jpg,8.0,0.0,1.0,0.0,unchosen,0.0,0.0,1615.0,0.3788780579964433,1.0,1693.0,-0.2250982549882257
130,Exp1,d11032021,qBGkp,outcome_evaluation,10.0,1.0,53.0,Gorka1.jpg,0.0,1.0,-1.0,0.0,chosen,0.0,1.0,953.0,-0.5678701703460897,6.0,1926.0,-0.1576433263206502
131,Exp1,d11032021,qBGkp,outcome_evaluation,11.0,0.0,32.0,Macka1.jpg,16.0,1.0,1.0,0.0,chosen,1.0,1.0,1560.0,0.3002207278471392,6.0,1958.0,-0.1483791301087944
132,Exp1,d11032021,qBGkp,outcome_evaluation,12.0,0.0,49.0,Hinda1.jpg,5.0,1.0,1.0,0.0,chosen,1.0,1.0,886.0,-0.6636890998006965,6.0,1600.0,-0.2520223252289317
133,Exp1,d11032021,qBGkp,outcome_evaluation,13.0,0.0,37.0,Mondb1.jpg,1.0,0.0,-1.0,0.0,unchosen,0.0,1.0,929.0,-0.6021933689566951,1.0,1756.0,-0.2068593686961344
134,Exp1,d11032021,qBGkp,outcome_evaluation,14.0,1.0,22.0,Macb1n.jpg,12.0,,1.0,1.0,novel,1.0,1.0,1788.0,0.6262911146478908,1.0,1981.0,-0.141720489081523
135,Exp1,d11032021,qBGkp,outcome_evaluation,15.0,0.0,24.0,Dekoa1.jpg,20.0,1.0,-1.0,0.0,chosen,0.0,1.0,1463.0,0.1614978001292756,6.0,1509.0,-0.2783673832063968
136,Exp1,d11032021,qBGkp,outcome_evaluation,16.0,0.0,11.0,Wdekb1.jpg,2.0,0.0,-1.0,0.0,unchosen,0.0,1.0,1350.0,-0.0001072599956582,1.0,1620.0,-0.2462322025965218
137,Exp1,d11032021,qBGkp,outcome_evaluation,17.0,1.0,28.0,Krasa1.jpg,1.0,0.0,1.0,0.0,unchosen,1.0,1.0,1099.0,-0.3590707121315733,1.0,2349.0,-0.0351822326451807
138,Exp1,d11032021,qBGkp,outcome_evaluation,18.0,0.0,31.0,Maca1n.jpg,9.0,0.0,-1.0,0.0,unchosen,1.0,0.0,4898.0,5.0740056012721775,1.0,1877.0,-0.1718291267700545
139,Exp1,d11032021,qBGkp,outcome_evaluation,19.0,0.0,40.0,Krab1n.jpg,5.0,0.0,-1.0,0.0,unchosen,1.0,0.0,1107.0,-0.3476296459280381,1.0,1589.0,-0.2552068926767572
140,Exp1,d11032021,qBGkp,outcome_evaluation,20.0,1.0,19.0,Macc1n.jpg,18.0,,-1.0,1.0,novel,1.0,0.0,1135.0,-0.3075859142156651,1.0,1774.0,-0.2016482583269655
141,Exp1,d11032021,qBGkp,outcome_evaluation,21.0,1.0,51.0,Gora1n.jpg,12.0,,1.0,1.0,novel,0.0,0.0,1198.0,-0.2174875178628259,1.0,1686.0,-0.2271247979095691
142,Exp1,d11032021,qBGkp,outcome_evaluation,22.0,0.0,0.0,Gorkc1.jpg,18.0,0.0,1.0,0.0,unchosen,0.0,0.0,2178.0,1.184043092070229,1.0,1724.0,-0.2161235649079903
143,Exp1,d11032021,qBGkp,outcome_evaluation,23.0,0.0,5.0,Kupb1n.jpg,15.0,1.0,-1.0,0.0,chosen,0.0,1.0,970.0,-0.5435579046635775,6.0,2246.0,-0.0650013642020917
144,Exp1,d11032021,qBGkp,outcome_evaluation,24.0,0.0,16.0,Lewa1n.jpg,4.0,1.0,-1.0,0.0,chosen,0.0,1.0,1025.0,-0.4649005745142733,6.0,1923.0,-0.1585118447155117
145,Exp1,d11032021,qBGkp,outcome_evaluation,25.0,1.0,27.0,Vinb1n.jpg,1.0,0.0,-1.0,0.0,unchosen,0.0,1.0,956.0,-0.5635797705197639,1.0,1903.0,-0.1643019673479216
146,Exp1,d11032021,qBGkp,outcome_evaluation,26.0,0.0,1.0,Lewia1.jpg,2.0,1.0,-1.0,0.0,chosen,0.0,1.0,857.0,-0.7051629647885114,6.0,1542.0,-0.2688136808629204
147,Exp1,d11032021,qBGkp,outcome_evaluation,27.0,1.0,33.0,Kupc1n.jpg,0.0,1.0,1.0,0.0,chosen,1.0,1.0,1239.0,-0.1588520535697083,6.0,1833.0,-0.1845673965613563
148,Exp1,d11032021,qBGkp,outcome_evaluation,28.0,1.0,54.0,Kupka1.jpg,13.0,0.0,-1.0,0.0,unchosen,0.0,1.0,1584.0,0.3345439264577447,1.0,1689.0,-0.2262562795147076
149,Exp1,d11032021,qBGkp,outcome_evaluation,29.0,0.0,12.0,Kupkc1.jpg,4.0,0.0,1.0,0.0,unchosen,1.0,1.0,1334.0,-0.0229893924027284,1.0,1539.0,-0.269682199257782
150,Exp1,d11032021,qBGkp,outcome_evaluation,30.0,1.0,57.0,Lewc1n.jpg,4.0,,1.0,1.0,novel,1.0,1.0,1163.0,-0.2675421825032921,1.0,1468.0,-0.2902371346028371
151,Exp1,d11032021,qBGkp,outcome_evaluation,31.0,1.0,39.0,Dekb1n.jpg,2.0,,-1.0,1.0,novel,0.0,1.0,1196.0,-0.2203477844137097,1.0,1452.0,-0.2948692327087651
152,Exp1,d11032021,qBGkp,outcome_evaluation,32.0,1.0,44.0,Lassf1.jpg,6.0,0.0,1.0,0.0,unchosen,1.0,1.0,1225.0,-0.1788739194258948,1.0,1702.0,-0.2224926998036412
153,Exp1,d11032021,qBGkp,outcome_evaluation,33.0,1.0,59.0,Kraa1n.jpg,19.0,0.0,1.0,0.0,unchosen,1.0,1.0,2107.0,1.0825036295138546,1.0,1882.0,-0.170381596111952
154,Exp1,d11032021,qBGkp,outcome_evaluation,34.0,1.0,3.0,Fogeg1.jpg,1.0,,1.0,1.0,novel,1.0,1.0,1875.0,0.7507127096113355,1.0,1936.0,-0.1547482650044453
155,Exp1,d11032021,qBGkp,outcome_evaluation,35.0,1.0,45.0,Klia1n.jpg,2.0,0.0,-1.0,0.0,unchosen,0.0,1.0,904.0,-0.6379467008427424,6.0,2966.0,0.1434430505646649
156,Exp1,d11032021,qBGkp,outcome_evaluation,36.0,0.0,10.0,Stera1.jpg,0.0,1.0,1.0,0.0,chosen,1.0,1.0,939.0,-0.5878920362022761,6.0,1991.0,-0.138825427765318
157,Exp1,d11032021,qBGkp,outcome_evaluation,37.0,1.0,41.0,Vincb1.jpg,0.0,1.0,1.0,0.0,chosen,1.0,1.0,760.0,-0.8438858925063749,6.0,1817.0,-0.1891994946672842
158,Exp1,d11032021,qBGkp,outcome_evaluation,38.0,1.0,7.0,Pica1n.jpg,6.0,1.0,1.0,0.0,chosen,1.0,1.0,715.0,-0.90824188990126,6.0,23615.0,6.121455162396273
159,Exp1,d11032021,qBGkp,outcome_evaluation,39.0,1.0,36.0,Gorkf1.jpg,10.0,1.0,-1.0,0.0,chosen,0.0,1.0,923.0,-0.6107741686093464,6.0,1897.0,-0.1660390041376446
160,Exp1,d11032021,BcmPt,outcome_evaluation,0.0,0.0,14.0,Kupkb1.jpg,58.0,0.0,1.0,0.0,unchosen,0.0,0.0,2661.0,1.5434773163823423,5.0,3410.0,-0.0153112411374559
161,Exp1,d11032021,BcmPt,outcome_evaluation,1.0,1.0,16.0,Lewa1n.jpg,50.0,1.0,-1.0,0.0,chosen,0.0,1.0,1579.0,0.0657271061616194,6.0,3133.0,-0.1146370911392194
162,Exp1,d11032021,BcmPt,outcome_evaluation,2.0,0.0,59.0,Kraa1n.jpg,50.0,1.0,1.0,0.0,chosen,1.0,1.0,1171.0,-0.4915021782839026,6.0,2487.0,-0.3462778821180615
163,Exp1,d11032021,BcmPt,outcome_evaluation,3.0,0.0,1.0,Lewia1.jpg,74.0,1.0,-1.0,0.0,chosen,0.0,1.0,1225.0,-0.4177512435778776,3.0,2142.0,-0.4699869732754926
164,Exp1,d11032021,BcmPt,outcome_evaluation,4.0,1.0,12.0,Kupkc1.jpg,34.0,,1.0,1.0,novel,1.0,1.0,3488.0,2.672959223824614,3.0,2542.0,-0.3265561429480362
165,Exp1,d11032021,BcmPt,outcome_evaluation,5.0,0.0,22.0,Macb1n.jpg,40.0,0.0,-1.0,0.0,unchosen,0.0,1.0,1080.0,-0.6157861608440559,5.0,2331.0,-0.4022159059457694
166,Exp1,d11032021,BcmPt,outcome_evaluation,6.0,0.0,35.0,Wdeka1.jpg,61.0,0.0,1.0,0.0,unchosen,1.0,1.0,1095.0,-0.5952997900923822,4.0,1828.0,-0.5825801750825459
167,Exp1,d11032021,BcmPt,outcome_evaluation,7.0,1.0,45.0,Klia1n.jpg,50.0,,-1.0,1.0,novel,0.0,1.0,756.0,-1.0582917690802058,4.0,2414.0,-0.3724540086528222
168,Exp1,d11032021,BcmPt,outcome_evaluation,8.0,0.0,42.0,Picc1n.jpg,38.0,1.0,1.0,0.0,chosen,1.0,1.0,1034.0,-0.6786110311491883,6.0,2461.0,-0.3556008860893461
169,Exp1,d11032021,BcmPt,outcome_evaluation,9.0,1.0,38.0,Lasc1n.jpg,31.0,,-1.0,1.0,novel,0.0,1.0,1156.0,-0.5119885490355762,4.0,1895.0,-0.558555511002697
170,Exp1,d11032021,BcmPt,outcome_evaluation,10.0,1.0,36.0,Gorkf1.jpg,60.0,0.0,-1.0,0.0,unchosen,0.0,1.0,1547.0,0.0220228485580491,2.0,2575.0,-0.314723099446021
171,Exp1,d11032021,BcmPt,outcome_evaluation,11.0,1.0,51.0,Gora1n.jpg,27.0,0.0,-1.0,0.0,unchosen,0.0,1.0,931.0,-0.8192841103106804,3.0,3778.0,0.1166451227638039
172,Exp1,d11032021,BcmPt,outcome_evaluation,12.0,1.0,44.0,Lassf1.jpg,43.0,0.0,1.0,0.0,unchosen,0.0,0.0,1586.0,0.0752874125124005,1.0,4954.0,0.5383317639265257
173,Exp1,d11032021,BcmPt,outcome_evaluation,13.0,1.0,30.0,Lasse1.jpg,34.0,,1.0,1.0,novel,0.0,0.0,1754.0,0.3047347649311449,3.0,2384.0,-0.3832113209273814
174,Exp1,d11032021,BcmPt,outcome_evaluation,14.0,1.0,56.0,Luisc1.jpg,45.0,1.0,-1.0,0.0,chosen,0.0,1.0,1115.0,-0.5679846290901508,5.0,2427.0,-0.3677925066671799
175,Exp1,d11032021,BcmPt,outcome_evaluation,15.0,0.0,19.0,Macc1n.jpg,58.0,1.0,-1.0,0.0,chosen,0.0,1.0,879.0,-0.8903035289164822,4.0,1782.0,-0.5990747205702033
176,Exp1,d11032021,BcmPt,outcome_evaluation,16.0,0.0,29.0,Clifb1.jpg,56.0,1.0,1.0,0.0,chosen,1.0,1.0,990.0,-0.7387043853540975,6.0,1952.0,-0.5381166176810344
177,Exp1,d11032021,BcmPt,outcome_evaluation,17.0,0.0,40.0,Krab1n.jpg,61.0,0.0,1.0,0.0,unchosen,0.0,0.0,909.0,-0.849330787413135,1.0,2948.0,-0.180973850165668
178,Exp1,d11032021,BcmPt,outcome_evaluation,18.0,1.0,28.0,Krasa1.jpg,39.0,,-1.0,1.0,novel,0.0,1.0,1390.0,-0.1924011653094679,3.0,1942.0,-0.5417023884392208
179,Exp1,d11032021,BcmPt,outcome_evaluation,19.0,1.0,47.0,Kupkd1.jpg,59.0,,1.0,1.0,novel,0.0,0.0,1245.0,-0.3904360825756461,4.0,2367.0,-0.3893071312162984
180,Exp1,d11032021,BcmPt,outcome_evaluation,20.0,0.0,2.0,Dekob1.jpg,44.0,1.0,-1.0,0.0,chosen,0.0,1.0,2804.0,1.7387807175482974,3.0,3527.0,0.026642276733325
181,Exp1,d11032021,BcmPt,outcome_evaluation,21.0,0.0,8.0,Klina1.jpg,60.0,0.0,-1.0,0.0,unchosen,0.0,1.0,1116.0,-0.5666188710400392,4.0,3455.0,0.0008247272743829
182,Exp1,d11032021,BcmPt,outcome_evaluation,22.0,1.0,46.0,Deka1n.jpg,58.0,1.0,-1.0,0.0,chosen,0.0,1.0,1066.0,-0.6349067735456179,6.0,3077.0,-0.1347174073850633
183,Exp1,d11032021,BcmPt,outcome_evaluation,23.0,1.0,9.0,Lassc1.jpg,30.0,0.0,-1.0,0.0,unchosen,0.0,1.0,1415.0,-0.1582572140566786,1.0,4116.0,0.2378441743905046
184,Exp1,d11032021,BcmPt,outcome_evaluation,24.0,1.0,37.0,Mondb1.jpg,50.0,,-1.0,1.0,novel,0.0,1.0,1557.0,0.0356804290591648,3.0,4223.0,0.2762119215030991
185,Exp1,d11032021,BcmPt,outcome_evaluation,25.0,0.0,53.0,Gorka1.jpg,72.0,0.0,1.0,0.0,unchosen,0.0,0.0,1487.0,-0.0599226344486453,3.0,3733.0,0.1005091543519651
186,Exp1,d11032021,BcmPt,outcome_evaluation,26.0,1.0,27.0,Vinb1n.jpg,66.0,1.0,1.0,0.0,chosen,1.0,1.0,1274.0,-0.3508290991224105,6.0,3245.0,-0.0744764586475316
187,Exp1,d11032021,BcmPt,outcome_evaluation,27.0,1.0,34.0,Monb1n.jpg,28.0,0.0,1.0,0.0,unchosen,0.0,0.0,714.0,-1.115653607184892,2.0,3202.0,-0.0898952729077332
188,Exp1,d11032021,BcmPt,outcome_evaluation,28.0,1.0,4.0,Mackb1.jpg,63.0,0.0,1.0,0.0,unchosen,0.0,0.0,1178.0,-0.4819418719331216,2.0,10843.0,2.649992163422502
189,Exp1,d11032021,BcmPt,outcome_evaluation,29.0,0.0,17.0,Picab1.jpg,50.0,0.0,-1.0,0.0,unchosen,0.0,1.0,2121.0,0.8059679693220925,4.0,4441.0,0.3543817240315629
190,Exp1,d11032021,BcmPt,outcome_evaluation,30.0,1.0,31.0,Maca1n.jpg,32.0,0.0,-1.0,0.0,unchosen,0.0,1.0,2263.0,0.999905612437936,2.0,4791.0,0.4798837005680872
191,Exp1,d11032021,BcmPt,outcome_evaluation,31.0,1.0,50.0,Gorke1.jpg,56.0,0.0,1.0,0.0,unchosen,1.0,1.0,2998.0,2.003737779269943,2.0,17918.0,5.186924974839386
192,Exp1,d11032021,BcmPt,outcome_evaluation,32.0,1.0,49.0,Hinda1.jpg,37.0,1.0,-1.0,0.0,chosen,0.0,1.0,3021.0,2.035150214422509,6.0,3373.0,-0.0285785929427456
193,Exp1,d11032021,BcmPt,outcome_evaluation,33.0,0.0,15.0,Clia1n.jpg,33.0,1.0,-1.0,0.0,chosen,0.0,1.0,2532.0,1.3672945279179494,5.0,1905.0,-0.5549697402445105
194,Exp1,d11032021,BcmPt,outcome_evaluation,34.0,0.0,5.0,Kupb1n.jpg,62.0,0.0,-1.0,0.0,unchosen,0.0,1.0,718.0,-1.1101905749844456,3.0,2142.0,-0.4699869732754926
195,Exp1,d11032021,BcmPt,outcome_evaluation,35.0,1.0,13.0,Picak1.jpg,59.0,1.0,1.0,0.0,chosen,1.0,1.0,851.0,-0.9285447543196064,6.0,2432.0,-0.3659996212880867
196,Exp1,d11032021,BcmPt,outcome_evaluation,36.0,1.0,33.0,Kupc1n.jpg,31.0,,1.0,1.0,novel,0.0,0.0,2882.0,1.8453098454570005,5.0,2060.0,-0.4993902934926211
197,Exp1,d11032021,BcmPt,outcome_evaluation,37.0,0.0,24.0,Dekoa1.jpg,60.0,1.0,1.0,0.0,chosen,1.0,1.0,1286.0,-0.3344400025210716,6.0,2897.0,-0.1992612810324187
198,Exp1,d11032021,BcmPt,outcome_evaluation,38.0,1.0,23.0,Lewib1.jpg,69.0,1.0,1.0,0.0,chosen,1.0,1.0,1236.0,-0.4027279050266503,6.0,2480.0,-0.3487879216487919
199,Exp1,d11032021,BcmPt,outcome_evaluation,39.0,1.0,57.0,Lewc1n.jpg,68.0,1.0,1.0,0.0,chosen,1.0,1.0,1125.0,-0.554327048589035,6.0,2496.0,-0.3430506884356937
200,Exp1,d11032021,8gPGn,outcome_evaluation,0.0,0.0,1.0,Lewia1.jpg,43.0,0.0,-1.0,0.0,unchosen,1.0,0.0,7714.0,3.635756303172653,1.0,3468.0,3.721243800552489
201,Exp1,d11032021,8gPGn,outcome_evaluation,1.0,0.0,55.0,Lewic1.jpg,73.0,1.0,-1.0,0.0,chosen,0.0,1.0,1691.0,-0.4107286346945203,6.0,2559.0,1.6981210776037532
202,Exp1,d11032021,8gPGn,outcome_evaluation,2.0,1.0,51.0,Gora1n.jpg,38.0,,-1.0,1.0,novel,0.0,1.0,1734.0,-0.3818395673977764,2.0,3005.0,2.690764349809624
203,Exp1,d11032021,8gPGn,outcome_evaluation,3.0,1.0,20.0,Gorc1n.jpg,22.0,0.0,-1.0,0.0,unchosen,0.0,1.0,3073.0,0.5177525514473414,2.0,1784.0,-0.0267635321710217
204,Exp1,d11032021,8gPGn,outcome_evaluation,4.0,1.0,14.0,Kupkb1.jpg,65.0,1.0,-1.0,0.0,chosen,0.0,1.0,2835.0,0.3578549231537357,6.0,1554.0,-0.5386647712009549
205,Exp1,d11032021,8gPGn,outcome_evaluation,5.0,0.0,54.0,Kupka1.jpg,71.0,1.0,-1.0,0.0,chosen,0.0,1.0,1497.0,-0.5410653569170393,6.0,1708.0,-0.1959135068069996
206,Exp1,d11032021,8gPGn,outcome_evaluation,6.0,0.0,3.0,Fogeg1.jpg,74.0,1.0,-1.0,0.0,chosen,0.0,1.0,1065.0,-0.831299707433164,6.0,1342.0,-1.0105041741328933
207,Exp1,d11032021,8gPGn,outcome_evaluation,7.0,1.0,25.0,Clifa1.jpg,21.0,,1.0,1.0,novel,0.0,0.0,4545.0,1.5066992272800626,1.0,1824.0,0.0622627702689666
208,Exp1,d11032021,8gPGn,outcome_evaluation,8.0,1.0,53.0,Gorka1.jpg,67.0,0.0,-1.0,0.0,unchosen,1.0,0.0,4149.0,1.2406510726402815,1.0,1889.0,0.2069305117339478
209,Exp1,d11032021,8gPGn,outcome_evaluation,9.0,1.0,19.0,Macc1n.jpg,39.0,,1.0,1.0,novel,1.0,1.0,5712.0,2.290735076938205,1.0,1961.0,0.3671778561259269
210,Exp1,d11032021,8gPGn,outcome_evaluation,10.0,0.0,57.0,Lewc1n.jpg,40.0,0.0,-1.0,0.0,unchosen,0.0,1.0,2566.0,0.1771302928555007,1.0,1986.0,0.4228192951509196
211,Exp1,d11032021,8gPGn,outcome_evaluation,11.0,1.0,43.0,Picac1.jpg,68.0,1.0,1.0,0.0,chosen,1.0,1.0,1166.0,-0.763443991224533,6.0,1593.0,-0.4518641263219662
212,Exp1,d11032021,8gPGn,outcome_evaluation,12.0,1.0,26.0,Clib1n.jpg,26.0,0.0,1.0,0.0,unchosen,0.0,0.0,1413.0,-0.5974998139618413,1.0,1887.0,0.2024791966119483
213,Exp1,d11032021,8gPGn,outcome_evaluation,13.0,0.0,34.0,Monb1n.jpg,19.0,0.0,1.0,0.0,unchosen,1.0,1.0,2650.0,0.2335647499003027,1.0,1371.0,-0.9459601048639018
214,Exp1,d11032021,8gPGn,outcome_evaluation,14.0,1.0,38.0,Lasc1n.jpg,31.0,1.0,-1.0,0.0,chosen,0.0,1.0,1241.0,-0.7130560831488169,6.0,1322.0,-1.0550173253528876
215,Exp1,d11032021,8gPGn,outcome_evaluation,15.0,1.0,21.0,Lewb1n.jpg,21.0,1.0,-1.0,0.0,chosen,0.0,1.0,1041.0,-0.8474238380173931,6.0,1608.0,-0.4184792629069706
216,Exp1,d11032021,8gPGn,outcome_evaluation,16.0,1.0,16.0,Lewa1n.jpg,63.0,0.0,1.0,0.0,unchosen,0.0,0.0,2256.0,-0.0311397271907924,1.0,1524.0,-0.6054344980309462
217,Exp1,d11032021,8gPGn,outcome_evaluation,17.0,0.0,5.0,Kupb1n.jpg,71.0,1.0,1.0,0.0,chosen,1.0,1.0,1462.0,-0.5645797140190402,6.0,1634.0,-0.3606121663209781
218,Exp1,d11032021,8gPGn,outcome_evaluation,18.0,0.0,22.0,Macb1n.jpg,34.0,0.0,1.0,0.0,unchosen,0.0,0.0,2045.0,-0.1728977085771404,1.0,1809.0,0.028877906853971
219,Exp1,d11032021,8gPGn,outcome_evaluation,19.0,1.0,29.0,Clifb1.jpg,36.0,0.0,-1.0,0.0,unchosen,0.0,1.0,1611.0,-0.4644757366419508,1.0,1607.0,-0.4207049204679703
220,Exp1,d11032021,8gPGn,outcome_evaluation,20.0,0.0,41.0,Vincb1.jpg,29.0,0.0,-1.0,0.0,unchosen,0.0,1.0,3227.0,0.6212157226961451,1.0,1458.0,-0.752327897056927
221,Exp1,d11032021,8gPGn,outcome_evaluation,21.0,1.0,11.0,Wdekb1.jpg,26.0,0.0,-1.0,0.0,unchosen,0.0,1.0,2033.0,-0.180959773869255,1.0,1603.0,-0.4296075507119691
222,Exp1,d11032021,8gPGn,outcome_evaluation,22.0,1.0,15.0,Clia1n.jpg,68.0,1.0,1.0,0.0,chosen,1.0,1.0,1287.0,-0.6821514995290443,6.0,1593.0,-0.4518641263219662
223,Exp1,d11032021,8gPGn,outcome_evaluation,23.0,1.0,52.0,Picaa1.jpg,71.0,,-1.0,1.0,novel,1.0,0.0,2380.0,0.0521682808277247,3.0,2058.0,0.5830666395428987
224,Exp1,d11032021,8gPGn,outcome_evaluation,24.0,1.0,39.0,Dekb1n.jpg,74.0,,-1.0,1.0,novel,1.0,0.0,1509.0,-0.5330032916249247,4.0,1811.0,0.0333292219759704
225,Exp1,d11032021,8gPGn,outcome_evaluation,25.0,0.0,24.0,Dekoa1.jpg,70.0,1.0,-1.0,0.0,chosen,0.0,1.0,1201.0,-0.7399296341225321,6.0,2042.0,0.5474561185669033
226,Exp1,d11032021,8gPGn,outcome_evaluation,26.0,1.0,9.0,Lassc1.jpg,74.0,,1.0,1.0,novel,1.0,1.0,2765.0,0.310826208949734,1.0,2173.0,0.8390172590578653
227,Exp1,d11032021,8gPGn,outcome_evaluation,27.0,0.0,33.0,Kupc1n.jpg,35.0,0.0,1.0,0.0,unchosen,1.0,1.0,4009.0,1.1465936442322782,1.0,2285.0,1.088290905889833
228,Exp1,d11032021,8gPGn,outcome_evaluation,28.0,0.0,10.0,Stera1.jpg,37.0,0.0,1.0,0.0,unchosen,0.0,0.0,1242.0,-0.712384244374474,2.0,1760.0,-0.0801793136350147
229,Exp1,d11032021,8gPGn,outcome_evaluation,29.0,0.0,35.0,Wdeka1.jpg,29.0,1.0,1.0,0.0,chosen,1.0,1.0,1360.0,-0.633107269002014,6.0,1446.0,-0.7790357877889236
230,Exp1,d11032021,8gPGn,outcome_evaluation,30.0,1.0,27.0,Vinb1n.jpg,72.0,1.0,1.0,0.0,chosen,1.0,1.0,1554.0,-0.5027705467794951,6.0,1432.0,-0.8101949936429195
231,Exp1,d11032021,8gPGn,outcome_evaluation,31.0,1.0,45.0,Klia1n.jpg,73.0,,1.0,1.0,novel,0.0,0.0,2574.0,0.1825050030502437,1.0,2060.0,0.5875179546648981
232,Exp1,d11032021,8gPGn,outcome_evaluation,32.0,1.0,2.0,Dekob1.jpg,68.0,0.0,1.0,0.0,unchosen,1.0,1.0,1310.0,-0.666699207719158,2.0,2165.0,0.8212119985698676
233,Exp1,d11032021,8gPGn,outcome_evaluation,33.0,0.0,12.0,Kupkc1.jpg,35.0,0.0,-1.0,0.0,unchosen,1.0,0.0,5648.0,2.2477373953802604,1.0,1827.0,0.0689397429519658
234,Exp1,d11032021,8gPGn,outcome_evaluation,34.0,1.0,28.0,Krasa1.jpg,63.0,1.0,1.0,0.0,chosen,1.0,1.0,1336.0,-0.6492313995862432,6.0,1431.0,-0.8124206512039192
235,Exp1,d11032021,8gPGn,outcome_evaluation,35.0,0.0,40.0,Krab1n.jpg,68.0,1.0,1.0,0.0,chosen,1.0,1.0,1127.0,-0.7896457034239053,6.0,1277.0,-1.1551719155978744
236,Exp1,d11032021,8gPGn,outcome_evaluation,36.0,0.0,42.0,Picc1n.jpg,68.0,1.0,1.0,0.0,chosen,1.0,1.0,1144.0,-0.7782244442600763,6.0,1318.0,-1.0639199555968863
237,Exp1,d11032021,8gPGn,outcome_evaluation,37.0,1.0,47.0,Kupkd1.jpg,27.0,,-1.0,1.0,novel,0.0,1.0,1959.0,-0.2306758431706282,1.0,1488.0,-0.6855581702269358
238,Exp1,d11032021,8gPGn,outcome_evaluation,38.0,1.0,6.0,Wdekc1.jpg,36.0,1.0,-1.0,0.0,chosen,0.0,1.0,1185.0,-0.7506790545120182,6.0,1384.0,-0.9170265565709056
239,Exp1,d11032021,8gPGn,outcome_evaluation,39.0,1.0,8.0,Klina1.jpg,38.0,0.0,1.0,0.0,unchosen,1.0,1.0,1778.0,-0.3522786613266896,1.0,1795.0,-0.0022812990000249
240,Exp1,d11042021,339Ys,outcome_evaluation,0.0,1.0,57.0,Lewc1n.jpg,24.0,0.0,-1.0,0.0,unchosen,0.0,1.0,2851.0,1.6723580387303292,1.0,4031.0,2.5186053046985126
241,Exp1,d11042021,339Ys,outcome_evaluation,1.0,1.0,2.0,Dekob1.jpg,17.0,,1.0,1.0,novel,0.0,0.0,2767.0,1.5249712056776366,1.0,2963.0,1.148075426514419
242,Exp1,d11042021,339Ys,outcome_evaluation,2.0,1.0,9.0,Lassc1.jpg,33.0,0.0,1.0,0.0,unchosen,0.0,0.0,2766.0,1.5232166005222474,2.0,2615.0,0.7014982751960065
243,Exp1,d11042021,339Ys,outcome_evaluation,3.0,1.0,55.0,Lewic1.jpg,78.0,1.0,1.0,0.0,chosen,1.0,1.0,1388.0,-0.8946293036040672,6.0,2523.0,0.5834376489853917
244,Exp1,d11042021,339Ys,outcome_evaluation,4.0,1.0,34.0,Monb1n.jpg,70.0,,-1.0,1.0,novel,0.0,1.0,1888.0,-0.0173267259094683,1.0,2103.0,0.044465224980411
245,Exp1,d11042021,339Ys,outcome_evaluation,5.0,1.0,8.0,Klina1.jpg,65.0,0.0,-1.0,0.0,unchosen,1.0,0.0,1596.0,-0.5296714312831141,2.0,2280.0,0.2716036036682243
246,Exp1,d11042021,339Ys,outcome_evaluation,6.0,1.0,51.0,Gora1n.jpg,78.0,,-1.0,1.0,novel,0.0,1.0,1910.0,0.021274587509094,1.0,1711.0,-0.4585757040909042
247,Exp1,d11042021,339Ys,outcome_evaluation,7.0,0.0,12.0,Kupkc1.jpg,22.0,1.0,-1.0,0.0,chosen,1.0,0.0,2727.0,1.4547869994620686,2.0,5621.0,4.5590009098602255
248,Exp1,d11042021,339Ys,outcome_evaluation,8.0,1.0,16.0,Lewa1n.jpg,63.0,0.0,1.0,0.0,unchosen,0.0,0.0,2031.0,0.2335818113111869,1.0,1966.0,-0.1313424466593088
249,Exp1,d11042021,339Ys,outcome_evaluation,9.0,0.0,10.0,Stera1.jpg,39.0,0.0,-1.0,0.0,unchosen,0.0,1.0,2246.0,0.6108219197198645,3.0,1599.0,-0.6023016838255658
250,Exp1,d11042021,339Ys,outcome_evaluation,10.0,0.0,42.0,Picc1n.jpg,36.0,0.0,-1.0,0.0,unchosen,1.0,0.0,2136.0,0.4178153526270527,1.0,2139.0,0.090662861323695
251,Exp1,d11042021,339Ys,outcome_evaluation,11.0,1.0,36.0,Gorkf1.jpg,18.0,0.0,-1.0,0.0,unchosen,0.0,1.0,1776.0,-0.2138425033130584,1.0,1677.0,-0.5022068050817836
252,Exp1,d11042021,339Ys,outcome_evaluation,12.0,1.0,39.0,Dekb1n.jpg,84.0,0.0,-1.0,0.0,unchosen,0.0,1.0,2261.0,0.6371409970507025,4.0,2075.0,0.0085337300467456
253,Exp1,d11042021,339Ys,outcome_evaluation,13.0,1.0,13.0,Picak1.jpg,83.0,1.0,-1.0,0.0,chosen,0.0,1.0,3024.0,1.9759047306126605,6.0,2208.0,0.1792083309816562
254,Exp1,d11042021,339Ys,outcome_evaluation,14.0,1.0,37.0,Mondb1.jpg,61.0,,1.0,1.0,novel,0.0,0.0,2429.0,0.9319146631560876,1.0,2285.0,0.2780199420492359
255,Exp1,d11042021,339Ys,outcome_evaluation,15.0,1.0,25.0,Clifa1.jpg,62.0,,1.0,1.0,novel,0.0,0.0,2002.0,0.1826982618049002,1.0,1838.0,-0.2956007092132077
256,Exp1,d11042021,339Ys,outcome_evaluation,16.0,1.0,22.0,Macb1n.jpg,83.0,1.0,-1.0,0.0,chosen,0.0,1.0,1876.0,-0.0383819877741387,6.0,1925.0,-0.1839564213836046
257,Exp1,d11042021,339Ys,outcome_evaluation,17.0,0.0,58.0,Mackc1.jpg,58.0,1.0,1.0,0.0,chosen,1.0,1.0,993.0,-1.5876983399828004,6.0,1501.0,-0.7280619160933947
258,Exp1,d11042021,339Ys,outcome_evaluation,18.0,0.0,48.0,Picb1n.jpg,76.0,0.0,1.0,0.0,unchosen,0.0,0.0,2017.0,0.2090173391357382,2.0,2408.0,0.4358618662221232
259,Exp1,d11042021,339Ys,outcome_evaluation,19.0,1.0,52.0,Picaa1.jpg,79.0,,-1.0,1.0,novel,1.0,0.0,2219.0,0.5634475805243562,1.0,1622.0,-0.5727865272729121
260,Exp1,d11042021,339Ys,outcome_evaluation,20.0,0.0,27.0,Vinb1n.jpg,90.0,1.0,1.0,0.0,chosen,1.0,1.0,1386.0,-0.8981385139148457,6.0,1549.0,-0.6664650676356825
261,Exp1,d11042021,339Ys,outcome_evaluation,21.0,0.0,53.0,Gorka1.jpg,90.0,1.0,1.0,0.0,chosen,1.0,1.0,1218.0,-1.192912180020231,6.0,1706.0,-0.4649920424719159
262,Exp1,d11042021,339Ys,outcome_evaluation,22.0,0.0,17.0,Picab1.jpg,37.0,0.0,-1.0,0.0,unchosen,0.0,1.0,1719.0,-0.3138549971702428,1.0,1871.0,-0.2532528758985307
263,Exp1,d11042021,339Ys,outcome_evaluation,23.0,0.0,32.0,Macka1.jpg,32.0,1.0,-1.0,0.0,chosen,0.0,1.0,3295.0,2.451402727723133,4.0,1692.0,-0.4829577899387486
264,Exp1,d11042021,339Ys,outcome_evaluation,24.0,0.0,29.0,Clifb1.jpg,21.0,1.0,-1.0,0.0,chosen,0.0,1.0,1430.0,-0.8209358870777209,6.0,1313.0,-0.9693162392194336
265,Exp1,d11042021,339Ys,outcome_evaluation,25.0,1.0,35.0,Wdeka1.jpg,59.0,0.0,1.0,0.0,unchosen,0.0,0.0,1914.0,0.0282930081306508,1.0,2008.0,-0.0774452042588108
266,Exp1,d11042021,339Ys,outcome_evaluation,26.0,1.0,54.0,Kupka1.jpg,67.0,1.0,1.0,0.0,chosen,1.0,1.0,1142.0,-1.32626217182981,6.0,1361.0,-0.9077193907617216
267,Exp1,d11042021,339Ys,outcome_evaluation,27.0,1.0,7.0,Pica1n.jpg,81.0,1.0,-1.0,0.0,chosen,0.0,1.0,1499.0,-0.6998681313558663,4.0,2441.0,0.4782096995368002
268,Exp1,d11042021,339Ys,outcome_evaluation,28.0,0.0,43.0,Picac1.jpg,63.0,1.0,1.0,0.0,chosen,1.0,1.0,865.0,-1.8122877998726177,6.0,1868.0,-0.2571026789271377
269,Exp1,d11042021,339Ys,outcome_evaluation,29.0,0.0,45.0,Klia1n.jpg,61.0,0.0,1.0,0.0,unchosen,0.0,0.0,1779.0,-0.2085786878468909,2.0,1448.0,-0.7960751029321184
270,Exp1,d11042021,339Ys,outcome_evaluation,30.0,1.0,1.0,Lewia1.jpg,87.0,1.0,-1.0,0.0,chosen,0.0,1.0,1355.0,-0.9525312737319108,6.0,2544.0,0.6103862701856407
271,Exp1,d11042021,339Ys,outcome_evaluation,31.0,0.0,44.0,Lassf1.jpg,72.0,0.0,1.0,0.0,unchosen,0.0,0.0,2011.0,0.198489708203403,1.0,2033.0,-0.0453635123537524
272,Exp1,d11042021,339Ys,outcome_evaluation,32.0,0.0,0.0,Gorkc1.jpg,31.0,0.0,1.0,0.0,unchosen,0.0,0.0,1678.0,-0.3857938085411999,3.0,1764.0,-0.3905625172521805
273,Exp1,d11042021,339Ys,outcome_evaluation,33.0,0.0,4.0,Mackb1.jpg,72.0,0.0,-1.0,0.0,unchosen,1.0,0.0,2254.0,0.6248587609629781,3.0,2539.0,0.6039699318046291
274,Exp1,d11042021,339Ys,outcome_evaluation,34.0,0.0,59.0,Kraa1n.jpg,68.0,1.0,-1.0,0.0,chosen,0.0,1.0,1602.0,-0.5191438003507789,6.0,1339.0,-0.9359512796381728
275,Exp1,d11042021,339Ys,outcome_evaluation,35.0,1.0,46.0,Deka1n.jpg,37.0,1.0,1.0,0.0,chosen,1.0,1.0,1177.0,-1.264850991391188,6.0,1485.0,-0.748594198912632
276,Exp1,d11042021,339Ys,outcome_evaluation,36.0,1.0,33.0,Kupc1n.jpg,40.0,,1.0,1.0,novel,0.0,0.0,1987.0,0.1563791844740622,2.0,1436.0,-0.8114743150465463
277,Exp1,d11042021,339Ys,outcome_evaluation,37.0,1.0,47.0,Kupkd1.jpg,78.0,1.0,1.0,0.0,chosen,1.0,1.0,1198.0,-1.228004283128015,6.0,1388.0,-0.8730711635042585
278,Exp1,d11042021,339Ys,outcome_evaluation,38.0,1.0,56.0,Luisc1.jpg,62.0,0.0,1.0,0.0,unchosen,1.0,1.0,1786.0,-0.1962964517591665,2.0,2050.0,-0.0235479618583127
279,Exp1,d11042021,339Ys,outcome_evaluation,39.0,1.0,15.0,Clia1n.jpg,66.0,,-1.0,1.0,novel,1.0,0.0,1717.0,-0.3173642074810212,1.0,1809.0,-0.3328154718230754
280,Exp1,d11032021,JY6WO,outcome_evaluation,0.0,1.0,24.0,Dekoa1.jpg,31.0,,-1.0,1.0,novel,0.0,1.0,5253.0,3.49677923710832,3.0,3057.0,0.943453590574942
281,Exp1,d11032021,JY6WO,outcome_evaluation,1.0,1.0,6.0,Wdekc1.jpg,21.0,0.0,1.0,0.0,unchosen,0.0,0.0,2107.0,0.6667010996821311,3.0,1899.0,-0.460542114476504
282,Exp1,d11032021,JY6WO,outcome_evaluation,2.0,0.0,59.0,Kraa1n.jpg,50.0,0.0,-1.0,0.0,unchosen,1.0,0.0,1506.0,0.1260536233333899,4.0,2557.0,0.3372378284629187
283,Exp1,d11032021,JY6WO,outcome_evaluation,3.0,0.0,27.0,Vinb1n.jpg,24.0,1.0,-1.0,0.0,chosen,0.0,1.0,1538.0,0.1548401778145209,6.0,3757.0,1.7921556575317747
284,Exp1,d11032021,JY6WO,outcome_evaluation,4.0,0.0,5.0,Kupb1n.jpg,32.0,0.0,1.0,0.0,unchosen,0.0,0.0,5449.0,3.6730968833052473,3.0,3334.0,1.279297122785003
285,Exp1,d11032021,JY6WO,outcome_evaluation,5.0,1.0,25.0,Clifa1.jpg,21.0,,-1.0,1.0,novel,0.0,1.0,3451.0,1.875736387889632,1.0,4789.0,3.043384990530991
286,Exp1,d11032021,JY6WO,outcome_evaluation,6.0,0.0,45.0,Klia1n.jpg,21.0,1.0,1.0,0.0,chosen,1.0,1.0,787.0,-0.5207442726645216,6.0,2103.0,-0.2132060835347985
287,Exp1,d11032021,JY6WO,outcome_evaluation,7.0,1.0,0.0,Gorkc1.jpg,25.0,,1.0,1.0,novel,0.0,0.0,1302.0,-0.05746066148382,3.0,2058.0,-0.2677655021248806
288,Exp1,d11032021,JY6WO,outcome_evaluation,8.0,1.0,39.0,Dekb1n.jpg,31.0,,-1.0,1.0,novel,0.0,1.0,818.0,-0.492857298010926,3.0,1684.0,-0.721214892184674
289,Exp1,d11032021,JY6WO,outcome_evaluation,9.0,0.0,2.0,Dekob1.jpg,28.0,0.0,1.0,0.0,unchosen,0.0,0.0,1071.0,-0.2652636016444842,2.0,2983.0,0.8537336577823627
290,Exp1,d11032021,JY6WO,outcome_evaluation,10.0,0.0,44.0,Lassf1.jpg,18.0,1.0,1.0,0.0,chosen,1.0,1.0,612.0,-0.6781707424832066,6.0,2581.0,0.3663361850442958
291,Exp1,d11032021,JY6WO,outcome_evaluation,11.0,1.0,36.0,Gorkf1.jpg,26.0,1.0,-1.0,0.0,chosen,0.0,1.0,864.0,-0.4514766259443002,6.0,2184.0,-0.1149991300726507
292,Exp1,d11032021,JY6WO,outcome_evaluation,12.0,1.0,29.0,Clifb1.jpg,16.0,,1.0,1.0,novel,0.0,0.0,1451.0,0.076576732818946,3.0,4906.0,3.1852394788652045
293,Exp1,d11032021,JY6WO,outcome_evaluation,13.0,1.0,16.0,Lewa1n.jpg,29.0,0.0,-1.0,0.0,unchosen,1.0,0.0,1578.0,0.1908233709159346,4.0,1959.0,-0.3877962230230612
294,Exp1,d11032021,JY6WO,outcome_evaluation,14.0,1.0,19.0,Macc1n.jpg,25.0,1.0,-1.0,0.0,chosen,0.0,1.0,926.0,-0.3957026766371089,6.0,2569.0,0.3517870067536072
295,Exp1,d11032021,JY6WO,outcome_evaluation,15.0,0.0,35.0,Wdeka1.jpg,32.0,0.0,-1.0,0.0,unchosen,1.0,0.0,2986.0,1.4574317680856974,3.0,2859.0,0.7033921487785808
296,Exp1,d11032021,JY6WO,outcome_evaluation,16.0,0.0,1.0,Lewia1.jpg,33.0,0.0,1.0,0.0,unchosen,1.0,1.0,1525.0,0.1431456400565614,3.0,1601.0,-0.82184670869527
297,Exp1,d11032021,JY6WO,outcome_evaluation,17.0,0.0,30.0,Lasse1.jpg,24.0,0.0,1.0,0.0,unchosen,0.0,0.0,1466.0,0.0900704302319762,4.0,1763.0,-0.6254328017709744
298,Exp1,d11032021,JY6WO,outcome_evaluation,18.0,1.0,13.0,Picak1.jpg,26.0,1.0,1.0,0.0,chosen,1.0,1.0,1783.0,0.3752372355606799,6.0,1768.0,-0.6193706441498542
299,Exp1,d11032021,JY6WO,outcome_evaluation,19.0,1.0,41.0,Vincb1.jpg,57.0,1.0,-1.0,0.0,chosen,0.0,1.0,1788.0,0.3797351346983566,6.0,2426.0,0.1784092987895686
300,Exp1,d11032021,JY6WO,outcome_evaluation,20.0,1.0,34.0,Monb1n.jpg,25.0,,1.0,1.0,novel,0.0,0.0,1155.0,-0.1896988961315154,3.0,2202.0,-0.0931753626366178
301,Exp1,d11032021,JY6WO,outcome_evaluation,21.0,0.0,51.0,Gora1n.jpg,18.0,0.0,-1.0,0.0,unchosen,0.0,1.0,804.0,-0.5054514155964208,4.0,1699.0,-0.7030284193213134
302,Exp1,d11032021,JY6WO,outcome_evaluation,22.0,1.0,10.0,Stera1.jpg,19.0,,-1.0,1.0,novel,1.0,0.0,786.0,-0.521643852492057,4.0,1765.0,-0.6230079387225264
303,Exp1,d11032021,JY6WO,outcome_evaluation,23.0,1.0,26.0,Clib1n.jpg,25.0,0.0,-1.0,0.0,unchosen,0.0,1.0,728.0,-0.5738194824891069,3.0,2533.0,0.3081394718815416
304,Exp1,d11032021,JY6WO,outcome_evaluation,24.0,1.0,22.0,Macb1n.jpg,27.0,1.0,1.0,0.0,chosen,1.0,1.0,1013.0,-0.3174392316415341,6.0,2249.0,-0.0361910809980876
305,Exp1,d11032021,JY6WO,outcome_evaluation,25.0,1.0,31.0,Maca1n.jpg,26.0,1.0,1.0,0.0,chosen,1.0,1.0,676.0,-0.6205976335209448,6.0,2035.0,-0.2956514271820337
306,Exp1,d11032021,JY6WO,outcome_evaluation,26.0,1.0,46.0,Deka1n.jpg,21.0,0.0,1.0,0.0,unchosen,0.0,0.0,640.0,-0.6529825073122171,3.0,1613.0,-0.8072975304045814
307,Exp1,d11032021,JY6WO,outcome_evaluation,27.0,1.0,42.0,Picc1n.jpg,29.0,0.0,-1.0,0.0,unchosen,0.0,1.0,722.0,-0.5792169614543189,4.0,1549.0,-0.8848931479549204
308,Exp1,d11032021,JY6WO,outcome_evaluation,28.0,0.0,28.0,Krasa1.jpg,26.0,1.0,-1.0,0.0,chosen,0.0,1.0,1006.0,-0.3237362904342815,6.0,2075.0,-0.2471541662130718
309,Exp1,d11032021,JY6WO,outcome_evaluation,29.0,0.0,52.0,Picaa1.jpg,37.0,1.0,-1.0,0.0,chosen,0.0,1.0,631.0,-0.6610787257600351,6.0,1513.0,-0.928540682826986
310,Exp1,d11032021,JY6WO,outcome_evaluation,30.0,0.0,7.0,Pica1n.jpg,50.0,1.0,1.0,0.0,chosen,1.0,1.0,732.0,-0.5702211631789655,6.0,2448.0,0.2050827923224976
311,Exp1,d11032021,JY6WO,outcome_evaluation,31.0,1.0,40.0,Krab1n.jpg,61.0,1.0,1.0,0.0,chosen,1.0,1.0,1389.0,0.0208027835117548,6.0,1447.0,-1.0085611634257732
312,Exp1,d11032021,JY6WO,outcome_evaluation,32.0,0.0,58.0,Mackc1.jpg,35.0,1.0,-1.0,0.0,chosen,0.0,1.0,771.0,-0.5351375499050871,6.0,1554.0,-0.8788309903338002
313,Exp1,d11032021,JY6WO,outcome_evaluation,33.0,1.0,53.0,Gorka1.jpg,30.0,0.0,1.0,0.0,unchosen,0.0,0.0,751.0,-0.553129146455794,3.0,2429.0,0.1820465933622407
314,Exp1,d11032021,JY6WO,outcome_evaluation,34.0,1.0,14.0,Kupkb1.jpg,31.0,,1.0,1.0,novel,0.0,0.0,736.0,-0.5666228438688241,4.0,1668.0,-0.7406137965722588
315,Exp1,d11032021,JY6WO,outcome_evaluation,35.0,1.0,54.0,Kupka1.jpg,18.0,1.0,-1.0,0.0,chosen,0.0,1.0,856.0,-0.4586732645645829,6.0,1614.0,-0.8060850988803574
316,Exp1,d11032021,JY6WO,outcome_evaluation,36.0,1.0,12.0,Kupkc1.jpg,23.0,0.0,1.0,0.0,unchosen,1.0,1.0,783.0,-0.524342591974663,4.0,3147.0,1.0525724277551065
317,Exp1,d11032021,JY6WO,outcome_evaluation,37.0,0.0,32.0,Macka1.jpg,23.0,1.0,1.0,0.0,chosen,1.0,1.0,748.0,-0.5558278859384,6.0,1618.0,-0.8012353727834611
318,Exp1,d11032021,JY6WO,outcome_evaluation,38.0,0.0,55.0,Lewic1.jpg,26.0,0.0,-1.0,0.0,unchosen,0.0,1.0,787.0,-0.5207442726645216,3.0,1744.0,-0.6484690007312313
319,Exp1,d11032021,JY6WO,outcome_evaluation,39.0,1.0,9.0,Lassc1.jpg,16.0,0.0,-1.0,0.0,unchosen,0.0,1.0,660.0,-0.6349909107615102,3.0,1415.0,-1.0473589722009429
360,Exp1,d11032021,UiTO9,outcome_evaluation,0.0,0.0,53.0,Gorka1.jpg,64.0,1.0,-1.0,0.0,chosen,0.0,1.0,2003.0,-0.1552063734623983,3.0,20368.0,6.012403868533172
361,Exp1,d11032021,UiTO9,outcome_evaluation,1.0,1.0,30.0,Lasse1.jpg,74.0,,-1.0,1.0,novel,0.0,1.0,1579.0,-0.2835987300091877,5.0,3268.0,-0.0378761683007645
362,Exp1,d11032021,UiTO9,outcome_evaluation,2.0,0.0,19.0,Macc1n.jpg,75.0,1.0,1.0,0.0,chosen,1.0,1.0,1515.0,-0.3029787083558729,6.0,2685.0,-0.2441517976267402
363,Exp1,d11032021,UiTO9,outcome_evaluation,3.0,1.0,12.0,Kupkc1.jpg,61.0,1.0,-1.0,0.0,chosen,0.0,1.0,20830.0,5.545838194241384,3.0,3066.0,-0.109347312595528
364,Exp1,d11032021,UiTO9,outcome_evaluation,4.0,0.0,16.0,Lewa1n.jpg,68.0,0.0,1.0,0.0,unchosen,0.0,0.0,1167.0,-0.4083573406159736,5.0,2593.0,-0.2767030118599988
365,Exp1,d11032021,UiTO9,outcome_evaluation,5.0,0.0,10.0,Stera1.jpg,63.0,0.0,-1.0,0.0,unchosen,1.0,0.0,6443.0,1.1892796243388866,4.0,2428.0,-0.3350829069522562
366,Exp1,d11032021,UiTO9,outcome_evaluation,6.0,0.0,13.0,Picak1.jpg,62.0,1.0,1.0,0.0,chosen,1.0,1.0,1196.0,-0.3995757879276319,4.0,2478.0,-0.3173920296515721
367,Exp1,d11032021,UiTO9,outcome_evaluation,7.0,0.0,37.0,Mondb1.jpg,68.0,0.0,1.0,0.0,unchosen,0.0,0.0,1563.0,-0.288443724595859,2.0,4304.0,0.3286788093694084
368,Exp1,d11032021,UiTO9,outcome_evaluation,8.0,1.0,55.0,Lewic1.jpg,76.0,,1.0,1.0,novel,1.0,1.0,1928.0,-0.17791728558742,6.0,2755.0,-0.2193845694057826
369,Exp1,d11032021,UiTO9,outcome_evaluation,9.0,1.0,46.0,Deka1n.jpg,54.0,0.0,-1.0,0.0,unchosen,0.0,1.0,1579.0,-0.2835987300091877,5.0,4339.0,0.3410624234798872
370,Exp1,d11032021,UiTO9,outcome_evaluation,10.0,1.0,3.0,Fogeg1.jpg,76.0,,-1.0,1.0,novel,1.0,0.0,1261.0,-0.3798929974192797,6.0,2709.0,-0.2356601765224119
371,Exp1,d11032021,UiTO9,outcome_evaluation,11.0,0.0,38.0,Lasc1n.jpg,59.0,0.0,1.0,0.0,unchosen,0.0,0.0,1275.0,-0.3756536271559423,4.0,3767.0,0.138678787160062
372,Exp1,d11032021,UiTO9,outcome_evaluation,12.0,1.0,41.0,Vincb1.jpg,64.0,,1.0,1.0,novel,0.0,0.0,1517.0,-0.302373084032539,3.0,2871.0,-0.1783417340681957
373,Exp1,d11032021,UiTO9,outcome_evaluation,13.0,1.0,24.0,Dekoa1.jpg,70.0,1.0,-1.0,0.0,chosen,1.0,0.0,2385.0,-0.0395321277056211,4.0,2639.0,-0.2604274047433695
374,Exp1,d11032021,UiTO9,outcome_evaluation,14.0,1.0,33.0,Kupc1n.jpg,53.0,,1.0,1.0,novel,1.0,1.0,2351.0,-0.0498277412022976,5.0,2338.0,-0.3669264860934874
375,Exp1,d11032021,UiTO9,outcome_evaluation,15.0,1.0,15.0,Clia1n.jpg,60.0,0.0,1.0,0.0,unchosen,1.0,1.0,1334.0,-0.357787709617592,5.0,2568.0,-0.2855484505103409
376,Exp1,d11032021,UiTO9,outcome_evaluation,16.0,1.0,59.0,Kraa1n.jpg,68.0,1.0,1.0,0.0,chosen,1.0,1.0,1563.0,-0.288443724595859,5.0,2677.0,-0.2469823379948497
377,Exp1,d11032021,UiTO9,outcome_evaluation,17.0,0.0,49.0,Hinda1.jpg,63.0,1.0,1.0,0.0,chosen,1.0,1.0,1371.0,-0.3465836596359146,6.0,2569.0,-0.2851946329643272
378,Exp1,d11032021,UiTO9,outcome_evaluation,18.0,1.0,27.0,Vinb1n.jpg,76.0,0.0,1.0,0.0,unchosen,1.0,1.0,1236.0,-0.3874633014609536,5.0,5078.0,0.6025335899839971
379,Exp1,d11032021,UiTO9,outcome_evaluation,19.0,0.0,18.0,Krasb1.jpg,69.0,1.0,1.0,0.0,chosen,1.0,1.0,1952.0,-0.1706497937074131,3.0,2686.0,-0.2437979800807266
380,Exp1,d11032021,UiTO9,outcome_evaluation,20.0,0.0,47.0,Kupkd1.jpg,65.0,0.0,-1.0,0.0,unchosen,1.0,0.0,4263.0,0.5291491119049223,5.0,2688.0,-0.2430903449886992
381,Exp1,d11032021,UiTO9,outcome_evaluation,21.0,1.0,14.0,Kupkb1.jpg,63.0,0.0,1.0,0.0,unchosen,0.0,0.0,475.0,-0.6179033564895072,3.0,2697.0,-0.2399059870745761
382,Exp1,d11032021,UiTO9,outcome_evaluation,22.0,1.0,4.0,Mackb1.jpg,60.0,1.0,-1.0,0.0,chosen,0.0,1.0,3434.0,0.2781178298830157,3.0,2948.0,-0.1510977830251423
383,Exp1,d11032021,UiTO9,outcome_evaluation,23.0,1.0,28.0,Krasa1.jpg,69.0,1.0,-1.0,0.0,chosen,0.0,1.0,6047.0,1.069366008318772,3.0,2817.0,-0.1974478815529344
384,Exp1,d11032021,UiTO9,outcome_evaluation,24.0,0.0,43.0,Picac1.jpg,72.0,1.0,-1.0,0.0,chosen,0.0,1.0,4545.0,0.6145421414950039,3.0,3014.0,-0.1277458249882394
385,Exp1,d11032021,UiTO9,outcome_evaluation,25.0,0.0,25.0,Clifa1.jpg,55.0,1.0,-1.0,0.0,chosen,1.0,0.0,1492.0,-0.3099433880742129,4.0,2546.0,-0.2933324365226418
386,Exp1,d11032021,UiTO9,outcome_evaluation,26.0,0.0,31.0,Maca1n.jpg,71.0,0.0,-1.0,0.0,unchosen,1.0,0.0,2602.0,0.0261781113761082,4.0,2923.0,-0.1599432216754843
387,Exp1,d11032021,UiTO9,outcome_evaluation,27.0,1.0,9.0,Lassc1.jpg,57.0,0.0,-1.0,0.0,unchosen,1.0,0.0,3379.0,0.2614631609913331,4.0,2322.0,-0.3725875668297063
388,Exp1,d11032021,UiTO9,outcome_evaluation,28.0,1.0,8.0,Klina1.jpg,63.0,1.0,1.0,0.0,chosen,0.0,0.0,5277.0,0.8362006438352158,4.0,3232.0,-0.050613599957257
389,Exp1,d11032021,UiTO9,outcome_evaluation,29.0,0.0,17.0,Picab1.jpg,64.0,0.0,1.0,0.0,unchosen,0.0,0.0,597.0,-0.5809602727661386,4.0,2966.0,-0.144729067196896
390,Exp1,d11032021,UiTO9,outcome_evaluation,30.0,1.0,42.0,Picc1n.jpg,63.0,1.0,1.0,0.0,chosen,1.0,1.0,1264.0,-0.3789845609342789,3.0,2418.0,-0.3386210824123929
391,Exp1,d11032021,UiTO9,outcome_evaluation,31.0,0.0,34.0,Monb1n.jpg,57.0,0.0,-1.0,0.0,unchosen,0.0,1.0,273.0,-0.6790714131462323,4.0,3841.0,0.1648612855650743
392,Exp1,d11032021,UiTO9,outcome_evaluation,32.0,0.0,57.0,Lewc1n.jpg,71.0,1.0,-1.0,0.0,chosen,1.0,0.0,751.0,-0.5343271998694273,4.0,2600.0,-0.2742262890379031
393,Exp1,d11032021,UiTO9,outcome_evaluation,33.0,1.0,48.0,Picb1n.jpg,66.0,1.0,1.0,0.0,chosen,1.0,1.0,745.0,-0.5361440728394291,5.0,2523.0,-0.3014702400809565
394,Exp1,d11032021,UiTO9,outcome_evaluation,34.0,1.0,7.0,Pica1n.jpg,50.0,0.0,1.0,0.0,unchosen,0.0,0.0,1298.0,-0.3686889474376024,4.0,2647.0,-0.2575968643752601
395,Exp1,d11032021,UiTO9,outcome_evaluation,35.0,1.0,6.0,Wdekc1.jpg,71.0,0.0,-1.0,0.0,unchosen,0.0,1.0,1424.0,-0.3305346150675659,3.0,4078.0,0.2487160439703166
396,Exp1,d11032021,UiTO9,outcome_evaluation,36.0,1.0,0.0,Gorkc1.jpg,50.0,,-1.0,1.0,novel,0.0,1.0,1686.0,-0.2511978287108234,4.0,2554.0,-0.2905018961545324
397,Exp1,d11032021,UiTO9,outcome_evaluation,37.0,1.0,26.0,Clib1n.jpg,71.0,0.0,-1.0,0.0,unchosen,0.0,1.0,1075.0,-0.4362160594893335,5.0,3306.0,-0.0244311015522447
398,Exp1,d11032021,UiTO9,outcome_evaluation,38.0,1.0,58.0,Mackc1.jpg,60.0,,1.0,1.0,novel,0.0,0.0,2360.0,-0.047102431747295,4.0,2510.0,-0.3060698681791343
399,Exp1,d11032021,UiTO9,outcome_evaluation,39.0,1.0,45.0,Klia1n.jpg,62.0,,-1.0,1.0,novel,0.0,1.0,1587.0,-0.281176232715852,4.0,2186.0,-0.4207067530875668
400,Exp1,d11032021,MJ2Dl,outcome_evaluation,0.0,0.0,48.0,Picb1n.jpg,75.0,0.0,1.0,0.0,unchosen,1.0,1.0,1535.0,0.9112359667434784,5.0,5406.0,2.377423435877392
401,Exp1,d11032021,MJ2Dl,outcome_evaluation,1.0,0.0,31.0,Maca1n.jpg,36.0,1.0,1.0,0.0,chosen,1.0,1.0,642.0,-1.1018352641351816,6.0,3175.0,0.1704907438256883
402,Exp1,d11032021,MJ2Dl,outcome_evaluation,2.0,0.0,22.0,Macb1n.jpg,55.0,0.0,1.0,0.0,unchosen,0.0,0.0,988.0,-0.3218546976357232,4.0,5305.0,2.277512991279802
403,Exp1,d11032021,MJ2Dl,outcome_evaluation,3.0,0.0,8.0,Klina1.jpg,43.0,1.0,1.0,0.0,chosen,1.0,1.0,621.0,-1.149175125107692,6.0,2491.0,-0.5061304849342241
404,Exp1,d11032021,MJ2Dl,outcome_evaluation,4.0,1.0,12.0,Kupkc1.jpg,38.0,0.0,-1.0,0.0,unchosen,1.0,0.0,1473.0,0.7714706629198759,4.0,3331.0,0.3248078661744403
405,Exp1,d11032021,MJ2Dl,outcome_evaluation,5.0,1.0,40.0,Krab1n.jpg,54.0,1.0,-1.0,0.0,chosen,0.0,1.0,858.0,-0.6149109798465023,6.0,3223.0,0.217972935317612
406,Exp1,d11032021,MJ2Dl,outcome_evaluation,6.0,1.0,54.0,Kupka1.jpg,69.0,1.0,-1.0,0.0,chosen,0.0,1.0,799.0,-0.7479134463883176,6.0,1997.0,-0.9948013723719388
407,Exp1,d11032021,MJ2Dl,outcome_evaluation,7.0,0.0,58.0,Mackc1.jpg,93.0,1.0,-1.0,0.0,chosen,0.0,1.0,766.0,-0.8223046564879769,6.0,1921.0,-1.0699815089008178
408,Exp1,d11032021,MJ2Dl,outcome_evaluation,8.0,1.0,7.0,Pica1n.jpg,66.0,,1.0,1.0,novel,0.0,0.0,774.0,-0.8042704237365443,6.0,1961.0,-1.0304130159908815
409,Exp1,d11032021,MJ2Dl,outcome_evaluation,9.0,0.0,17.0,Picab1.jpg,40.0,1.0,-1.0,0.0,chosen,0.0,1.0,712.0,-0.9440357275601466,6.0,2080.0,-0.9126967495838206
410,Exp1,d11032021,MJ2Dl,outcome_evaluation,10.0,0.0,19.0,Macc1n.jpg,78.0,1.0,-1.0,0.0,chosen,0.0,1.0,1389.0,0.582111219029834,6.0,1952.0,-1.0393159268956171
411,Exp1,d11032021,MJ2Dl,outcome_evaluation,11.0,1.0,45.0,Klia1n.jpg,65.0,,-1.0,1.0,novel,1.0,0.0,1681.0,1.2403607144571225,6.0,3891.0,0.87876676691355
412,Exp1,d11032021,MJ2Dl,outcome_evaluation,12.0,0.0,25.0,Clifa1.jpg,60.0,0.0,1.0,0.0,unchosen,1.0,1.0,1070.0,-0.1370038119335394,5.0,2858.0,-0.1430895624855576
413,Exp1,d11032021,MJ2Dl,outcome_evaluation,13.0,1.0,16.0,Lewa1n.jpg,73.0,1.0,1.0,0.0,chosen,1.0,1.0,1007.0,-0.2790233948510709,6.0,2271.0,-0.7237571959388743
414,Exp1,d11032021,MJ2Dl,outcome_evaluation,14.0,1.0,34.0,Monb1n.jpg,69.0,0.0,1.0,0.0,unchosen,1.0,1.0,1722.0,1.3327861573082145,3.0,2947.0,-0.0550496657609491
415,Exp1,d11032021,MJ2Dl,outcome_evaluation,15.0,0.0,24.0,Dekoa1.jpg,80.0,1.0,-1.0,0.0,chosen,0.0,1.0,657.0,-1.0680210777262455,6.0,2481.0,-0.5160226081617082
416,Exp1,d11032021,MJ2Dl,outcome_evaluation,16.0,0.0,55.0,Lewic1.jpg,50.0,0.0,1.0,0.0,unchosen,1.0,1.0,1279.0,0.3341405186976363,4.0,3542.0,0.5335316662743549
417,Exp1,d11032021,MJ2Dl,outcome_evaluation,17.0,1.0,13.0,Picak1.jpg,36.0,,1.0,1.0,novel,0.0,0.0,996.0,-0.3038204648842906,5.0,4134.0,1.1191453613414135
418,Exp1,d11032021,MJ2Dl,outcome_evaluation,18.0,0.0,41.0,Vincb1.jpg,70.0,1.0,1.0,0.0,chosen,1.0,1.0,973.0,-0.3556688840446593,6.0,2493.0,-0.5041520602887273
419,Exp1,d11032021,MJ2Dl,outcome_evaluation,19.0,1.0,20.0,Gorc1n.jpg,55.0,0.0,1.0,0.0,unchosen,0.0,0.0,1618.0,1.098341131539591,6.0,3318.0,0.311948105978711
420,Exp1,d11032021,MJ2Dl,outcome_evaluation,20.0,1.0,35.0,Wdeka1.jpg,95.0,1.0,-1.0,0.0,chosen,0.0,1.0,755.0,-0.8471017265211966,6.0,1963.0,-1.0284345913453845
421,Exp1,d11032021,MJ2Dl,outcome_evaluation,21.0,1.0,21.0,Lewb1n.jpg,82.0,1.0,1.0,0.0,chosen,1.0,1.0,643.0,-1.0995809850412526,6.0,2042.0,-0.9502868178482602
422,Exp1,d11032021,MJ2Dl,outcome_evaluation,22.0,1.0,32.0,Macka1.jpg,63.0,,1.0,1.0,novel,0.0,0.0,1123.0,-0.0175270199552987,2.0,6173.0,3.1361492874254218
423,Exp1,d11032021,MJ2Dl,outcome_evaluation,23.0,1.0,47.0,Kupkd1.jpg,77.0,1.0,1.0,0.0,chosen,1.0,1.0,943.0,-0.4232972568625314,6.0,2160.0,-0.8335597637639478
424,Exp1,d11032021,MJ2Dl,outcome_evaluation,24.0,0.0,38.0,Lasc1n.jpg,76.0,0.0,-1.0,0.0,unchosen,0.0,1.0,2584.0,3.275974736275073,1.0,2543.0,-0.4546914441513068
425,Exp1,d11032021,MJ2Dl,outcome_evaluation,25.0,1.0,6.0,Wdekc1.jpg,81.0,,-1.0,1.0,novel,1.0,0.0,2252.0,2.5275540770906217,4.0,3189.0,0.1843397163441661
426,Exp1,d11032021,MJ2Dl,outcome_evaluation,26.0,0.0,30.0,Lasse1.jpg,60.0,0.0,-1.0,0.0,unchosen,0.0,1.0,1214.0,0.1876123775922466,3.0,3521.0,0.5127582074966383
427,Exp1,d11032021,MJ2Dl,outcome_evaluation,27.0,0.0,52.0,Picaa1.jpg,71.0,0.0,-1.0,0.0,unchosen,1.0,0.0,848.0,-0.6374537707857931,1.0,3544.0,0.5355100909198517
428,Exp1,d11032021,MJ2Dl,outcome_evaluation,28.0,1.0,4.0,Mackb1.jpg,75.0,,1.0,1.0,novel,0.0,0.0,1012.0,-0.2677519993814255,2.0,3426.0,0.4187830368355393
429,Exp1,d11032021,MJ2Dl,outcome_evaluation,29.0,1.0,18.0,Krasb1.jpg,56.0,0.0,-1.0,0.0,unchosen,0.0,1.0,1468.0,0.7601992674502306,6.0,2761.0,-0.2390431577921533
430,Exp1,d11032021,MJ2Dl,outcome_evaluation,30.0,1.0,44.0,Lassf1.jpg,85.0,,-1.0,1.0,novel,0.0,1.0,1397.0,0.6001454517812665,5.0,2482.0,-0.5150333958389598
431,Exp1,d11032021,MJ2Dl,outcome_evaluation,31.0,1.0,26.0,Clib1n.jpg,82.0,1.0,1.0,0.0,chosen,1.0,1.0,903.0,-0.5134684206196942,6.0,2132.0,-0.8612577088009034
432,Exp1,d11032021,MJ2Dl,outcome_evaluation,32.0,1.0,3.0,Fogeg1.jpg,67.0,,-1.0,1.0,novel,0.0,1.0,1124.0,-0.0152727408613696,5.0,2151.0,-0.8424626746686835
433,Exp1,d11032021,MJ2Dl,outcome_evaluation,33.0,0.0,49.0,Hinda1.jpg,69.0,0.0,-1.0,0.0,unchosen,0.0,1.0,1034.0,-0.218157859314986,1.0,2785.0,-0.2153020620461915
434,Exp1,d11032021,MJ2Dl,outcome_evaluation,34.0,1.0,36.0,Gorkf1.jpg,55.0,0.0,1.0,0.0,unchosen,1.0,1.0,1428.0,0.6700281036930678,3.0,3060.0,0.0567313267096212
435,Exp1,d11032021,MJ2Dl,outcome_evaluation,35.0,1.0,14.0,Kupkb1.jpg,56.0,0.0,-1.0,0.0,unchosen,1.0,0.0,970.0,-0.3624317213264465,4.0,2552.0,-0.4457885332465711
436,Exp1,d11032021,MJ2Dl,outcome_evaluation,36.0,1.0,2.0,Dekob1.jpg,51.0,1.0,-1.0,0.0,chosen,0.0,1.0,580.0,-1.241600567958784,6.0,2230.0,-0.7643149011715591
437,Exp1,d11032021,MJ2Dl,outcome_evaluation,37.0,0.0,37.0,Mondb1.jpg,89.0,1.0,1.0,0.0,chosen,1.0,1.0,708.0,-0.953052843935863,6.0,2741.0,-0.2588274042471216
438,Exp1,d11032021,MJ2Dl,outcome_evaluation,38.0,1.0,42.0,Picc1n.jpg,85.0,0.0,-1.0,0.0,unchosen,1.0,0.0,1637.0,1.1411724343242435,3.0,4752.0,1.7304785767999311
439,Exp1,d11032021,MJ2Dl,outcome_evaluation,39.0,1.0,53.0,Gorka1.jpg,34.0,0.0,1.0,0.0,unchosen,0.0,0.0,1048.0,-0.186597951999979,2.0,3122.0,0.1180624907200226
440,Exp1,d11032021,52UGI,outcome_evaluation,0.0,0.0,53.0,Gorka1.jpg,59.0,0.0,1.0,0.0,unchosen,0.0,0.0,3575.0,5.347550161710901,3.0,2796.0,1.3846041364120028
441,Exp1,d11032021,52UGI,outcome_evaluation,1.0,1.0,8.0,Klina1.jpg,38.0,0.0,-1.0,0.0,unchosen,0.0,1.0,1475.0,1.0617138920802809,2.0,2013.0,0.3915699813301633
442,Exp1,d11032021,52UGI,outcome_evaluation,2.0,1.0,4.0,Mackb1.jpg,37.0,1.0,1.0,0.0,chosen,1.0,1.0,1458.0,1.0270190270404138,5.0,1835.0,0.1658227532272675
443,Exp1,d11032021,52UGI,outcome_evaluation,3.0,0.0,13.0,Picak1.jpg,33.0,0.0,-1.0,0.0,unchosen,0.0,1.0,816.0,-0.2832223468180901,2.0,2386.0,0.864624566062636
444,Exp1,d11032021,52UGI,outcome_evaluation,4.0,1.0,1.0,Lewia1.jpg,36.0,0.0,1.0,0.0,unchosen,0.0,0.0,1282.0,0.6678251301570857,3.0,2492.0,0.999058308640765
445,Exp1,d11032021,52UGI,outcome_evaluation,5.0,0.0,57.0,Lewc1n.jpg,35.0,0.0,1.0,0.0,unchosen,0.0,0.0,725.0,-0.4689419185020836,1.0,1824.0,0.1518720818276504
446,Exp1,d11032021,52UGI,outcome_evaluation,6.0,0.0,59.0,Kraa1n.jpg,65.0,1.0,-1.0,0.0,chosen,1.0,0.0,949.0,-0.0117860497414841,6.0,3563.0,2.3573464058216715
447,Exp1,d11032021,52UGI,outcome_evaluation,7.0,1.0,26.0,Clib1n.jpg,59.0,1.0,1.0,0.0,chosen,1.0,1.0,648.0,-0.6260892483885397,6.0,1235.0,-0.5951229594791227
448,Exp1,d11032021,52UGI,outcome_evaluation,8.0,1.0,55.0,Lewic1.jpg,44.0,,-1.0,1.0,novel,0.0,1.0,823.0,-0.2689362259193213,2.0,1503.0,-0.2552338744702684
449,Exp1,d11032021,52UGI,outcome_evaluation,9.0,1.0,6.0,Wdekc1.jpg,40.0,0.0,1.0,0.0,unchosen,0.0,0.0,968.0,0.0269905641266024,5.0,1190.0,-0.6521938879321021
450,Exp1,d11032021,52UGI,outcome_evaluation,10.0,1.0,28.0,Krasa1.jpg,41.0,1.0,-1.0,0.0,chosen,0.0,1.0,1204.0,0.5086369258565198,3.0,1817.0,0.1429943818460758
451,Exp1,d11032021,52UGI,outcome_evaluation,11.0,1.0,32.0,Macka1.jpg,68.0,,-1.0,1.0,novel,1.0,0.0,1399.0,0.9066074366079344,4.0,2043.0,0.4296172669654828
452,Exp1,d11032021,52UGI,outcome_evaluation,12.0,1.0,22.0,Macb1n.jpg,65.0,,1.0,1.0,novel,0.0,0.0,1136.0,0.369857465697052,3.0,1987.0,0.3585956671128864
453,Exp1,d11032021,52UGI,outcome_evaluation,13.0,1.0,25.0,Clifa1.jpg,41.0,1.0,1.0,0.0,chosen,0.0,0.0,1084.0,0.2637319961633414,2.0,1505.0,-0.2526973887612471
454,Exp1,d11032021,52UGI,outcome_evaluation,14.0,1.0,3.0,Fogeg1.jpg,35.0,1.0,1.0,0.0,chosen,1.0,1.0,674.0,-0.5730265136216844,3.0,1454.0,-0.3173777743412903
455,Exp1,d11032021,52UGI,outcome_evaluation,15.0,1.0,7.0,Pica1n.jpg,59.0,1.0,-1.0,0.0,chosen,0.0,1.0,759.0,-0.3995521884223498,3.0,1109.0,-0.7549215591474647
456,Exp1,d11032021,52UGI,outcome_evaluation,16.0,0.0,10.0,Stera1.jpg,64.0,1.0,1.0,0.0,chosen,1.0,1.0,1029.0,0.1514839033873014,4.0,1496.0,-0.2641115744518429
457,Exp1,d11032021,52UGI,outcome_evaluation,17.0,1.0,21.0,Lewb1n.jpg,61.0,,1.0,1.0,novel,0.0,0.0,881.0,-0.1505655099009518,4.0,1530.0,-0.2209913173984808
458,Exp1,d11032021,52UGI,outcome_evaluation,18.0,1.0,9.0,Lassc1.jpg,34.0,0.0,1.0,0.0,unchosen,0.0,0.0,838.0,-0.2383231097076741,4.0,1055.0,-0.8234066732910399
459,Exp1,d11032021,52UGI,outcome_evaluation,19.0,1.0,17.0,Picab1.jpg,59.0,,1.0,1.0,novel,1.0,1.0,635.0,-0.6526206157719674,5.0,1494.0,-0.2666480601608643
460,Exp1,d11032021,52UGI,outcome_evaluation,20.0,1.0,14.0,Kupkb1.jpg,59.0,0.0,-1.0,0.0,unchosen,1.0,0.0,1179.0,0.4576150655037742,3.0,999.0,-0.8944282731436363
461,Exp1,d11032021,52UGI,outcome_evaluation,21.0,0.0,39.0,Dekb1n.jpg,41.0,0.0,1.0,0.0,unchosen,0.0,0.0,877.0,-0.1587290075573911,4.0,1035.0,-0.8487715303812529
462,Exp1,d11032021,52UGI,outcome_evaluation,22.0,0.0,5.0,Kupb1n.jpg,61.0,0.0,-1.0,0.0,unchosen,1.0,0.0,652.0,-0.6179257507321004,3.0,999.0,-0.8944282731436363
463,Exp1,d11032021,52UGI,outcome_evaluation,23.0,1.0,40.0,Krab1n.jpg,62.0,0.0,-1.0,0.0,unchosen,0.0,1.0,683.0,-0.5546586438946961,4.0,994.0,-0.9007694874161896
464,Exp1,d11032021,52UGI,outcome_evaluation,24.0,0.0,41.0,Vincb1.jpg,65.0,1.0,1.0,0.0,chosen,1.0,1.0,597.0,-0.7301738435081405,3.0,936.0,-0.9743275729778073
465,Exp1,d11032021,52UGI,outcome_evaluation,25.0,0.0,52.0,Picaa1.jpg,52.0,1.0,-1.0,0.0,chosen,0.0,1.0,837.0,-0.2403639841217839,4.0,1364.0,-0.4315196312472488
466,Exp1,d11032021,52UGI,outcome_evaluation,26.0,1.0,27.0,Vinb1n.jpg,58.0,1.0,-1.0,0.0,chosen,1.0,0.0,773.0,-0.3709799466248123,5.0,1548.0,-0.1981629460172891
467,Exp1,d11032021,52UGI,outcome_evaluation,27.0,0.0,50.0,Gorke1.jpg,42.0,0.0,-1.0,0.0,unchosen,0.0,1.0,689.0,-0.5424133974100371,3.0,1236.0,-0.5938547166246121
468,Exp1,d11032021,52UGI,outcome_evaluation,28.0,0.0,24.0,Dekoa1.jpg,60.0,1.0,-1.0,0.0,chosen,1.0,0.0,1019.0,0.1310751592462032,4.0,1032.0,-0.8525762589447848
469,Exp1,d11032021,52UGI,outcome_evaluation,29.0,1.0,42.0,Picc1n.jpg,37.0,0.0,1.0,0.0,unchosen,0.0,0.0,834.0,-0.2464866073641133,4.0,1050.0,-0.8297478875635931
470,Exp1,d11032021,52UGI,outcome_evaluation,30.0,0.0,30.0,Lasse1.jpg,66.0,1.0,1.0,0.0,chosen,1.0,1.0,827.0,-0.2607727282628821,6.0,2369.0,0.843064437535955
471,Exp1,d11032021,52UGI,outcome_evaluation,31.0,0.0,51.0,Gora1n.jpg,37.0,0.0,-1.0,0.0,unchosen,0.0,1.0,558.0,-0.8097679456584235,3.0,1895.0,0.2419173244979066
472,Exp1,d11032021,52UGI,outcome_evaluation,32.0,0.0,47.0,Kupkd1.jpg,66.0,1.0,1.0,0.0,chosen,1.0,1.0,614.0,-0.6954789784682736,4.0,1758.0,0.0681680534299474
473,Exp1,d11032021,52UGI,outcome_evaluation,33.0,0.0,23.0,Lewib1.jpg,60.0,1.0,-1.0,0.0,chosen,0.0,1.0,946.0,-0.0179086729838136,6.0,893.0,-1.0288620157217652
474,Exp1,d11032021,52UGI,outcome_evaluation,34.0,1.0,36.0,Gorkf1.jpg,41.0,0.0,-1.0,0.0,unchosen,0.0,1.0,593.0,-0.7383373411645798,4.0,1304.0,-0.5076142025178879
475,Exp1,d11032021,52UGI,outcome_evaluation,35.0,1.0,49.0,Hinda1.jpg,54.0,1.0,-1.0,0.0,chosen,0.0,1.0,955.0,0.0004591967431747,5.0,3869.0,2.745428719301931
476,Exp1,d11032021,52UGI,outcome_evaluation,36.0,0.0,56.0,Luisc1.jpg,38.0,0.0,1.0,0.0,unchosen,0.0,0.0,1017.0,0.1269934104179835,4.0,4273.0,3.2577988325242337
477,Exp1,d11032021,52UGI,outcome_evaluation,37.0,1.0,18.0,Krasb1.jpg,67.0,,-1.0,1.0,novel,0.0,1.0,745.0,-0.4281244302198873,5.0,1534.0,-0.2159183459804382
478,Exp1,d11032021,52UGI,outcome_evaluation,38.0,1.0,33.0,Kupc1n.jpg,65.0,,-1.0,1.0,novel,0.0,1.0,898.0,-0.1158706448610849,4.0,1545.0,-0.2019676745808211
479,Exp1,d11032021,52UGI,outcome_evaluation,39.0,1.0,44.0,Lassf1.jpg,62.0,,1.0,1.0,novel,1.0,1.0,540.0,-0.8465036851124003,4.0,1210.0,-0.626829030841889
520,Exp1,d11032021,LBPHd,outcome_evaluation,0.0,0.0,53.0,Gorka1.jpg,59.0,1.0,-1.0,0.0,chosen,0.0,1.0,3643.0,3.343890589959364,4.0,4152.0,3.746384336364484
521,Exp1,d11032021,LBPHd,outcome_evaluation,1.0,0.0,5.0,Kupb1n.jpg,67.0,1.0,-1.0,0.0,chosen,1.0,0.0,1862.0,0.7871271242324813,4.0,3480.0,2.5487674802709925
522,Exp1,d11032021,LBPHd,outcome_evaluation,2.0,1.0,44.0,Lassf1.jpg,60.0,,1.0,1.0,novel,1.0,1.0,3762.0,3.5147243083319064,2.0,2891.0,1.499070563248572
523,Exp1,d11032021,LBPHd,outcome_evaluation,3.0,0.0,0.0,Gorkc1.jpg,65.0,0.0,-1.0,0.0,unchosen,0.0,1.0,1390.0,0.1095345606035715,5.0,2104.0,0.0965043939843194
524,Exp1,d11032021,LBPHd,outcome_evaluation,4.0,1.0,39.0,Dekb1n.jpg,69.0,0.0,1.0,0.0,unchosen,0.0,0.0,3088.0,2.547145096709268,3.0,1711.0,-0.6038876066774993
525,Exp1,d11032021,LBPHd,outcome_evaluation,5.0,1.0,45.0,Klia1n.jpg,64.0,,-1.0,1.0,novel,1.0,0.0,1206.0,-0.154611693014478,4.0,2096.0,0.0822470504593969
526,Exp1,d11032021,LBPHd,outcome_evaluation,6.0,0.0,18.0,Krasb1.jpg,60.0,1.0,-1.0,0.0,chosen,0.0,1.0,1078.0,-0.3383656085748603,5.0,2184.0,0.2390778292335446
527,Exp1,d11032021,LBPHd,outcome_evaluation,7.0,1.0,8.0,Klina1.jpg,63.0,1.0,1.0,0.0,chosen,1.0,1.0,885.0,-0.6154320593807493,5.0,1960.0,-0.1601277894642858
528,Exp1,d11032021,LBPHd,outcome_evaluation,8.0,1.0,10.0,Stera1.jpg,72.0,1.0,-1.0,0.0,chosen,0.0,1.0,1846.0,0.7641578847874335,3.0,1704.0,-0.6163627822618064
529,Exp1,d11032021,LBPHd,outcome_evaluation,9.0,0.0,41.0,Vincb1.jpg,57.0,1.0,1.0,0.0,chosen,1.0,1.0,1558.0,0.3507115747765733,4.0,1593.0,-0.8141834236701064
530,Exp1,d11032021,LBPHd,outcome_evaluation,10.0,0.0,31.0,Maca1n.jpg,69.0,1.0,1.0,0.0,chosen,1.0,1.0,978.0,-0.481923355106409,6.0,1704.0,-0.6163627822618064
531,Exp1,d11032021,LBPHd,outcome_evaluation,11.0,0.0,1.0,Lewia1.jpg,62.0,0.0,-1.0,0.0,unchosen,0.0,1.0,805.0,-0.7302782566059882,2.0,1856.0,-0.3454732552882786
532,Exp1,d11032021,LBPHd,outcome_evaluation,12.0,1.0,13.0,Picak1.jpg,47.0,0.0,-1.0,0.0,unchosen,0.0,1.0,950.0,-0.5221195241352427,3.0,1768.0,-0.5023040340624263
533,Exp1,d11032021,LBPHd,outcome_evaluation,13.0,1.0,47.0,Kupkd1.jpg,65.0,1.0,1.0,0.0,chosen,1.0,1.0,990.0,-0.4646964255226231,5.0,2127.0,0.1374942566184717
534,Exp1,d11032021,LBPHd,outcome_evaluation,14.0,0.0,24.0,Dekoa1.jpg,45.0,0.0,-1.0,0.0,unchosen,0.0,1.0,884.0,-0.6168676368460647,2.0,1895.0,-0.2759687056042813
535,Exp1,d11032021,LBPHd,outcome_evaluation,15.0,0.0,11.0,Wdekb1.jpg,56.0,0.0,1.0,0.0,unchosen,0.0,0.0,865.0,-0.644143608687059,4.0,2272.0,0.3959086080076923
536,Exp1,d11032021,LBPHd,outcome_evaluation,16.0,1.0,17.0,Picab1.jpg,60.0,1.0,-1.0,0.0,chosen,0.0,1.0,1207.0,-0.1531761155491625,5.0,2696.0,1.1515478148285858
537,Exp1,d11032021,LBPHd,outcome_evaluation,17.0,1.0,40.0,Krab1n.jpg,60.0,0.0,1.0,0.0,unchosen,0.0,0.0,1047.0,-0.3828685099996404,2.0,2144.0,0.167791111608932
538,Exp1,d11032021,LBPHd,outcome_evaluation,18.0,0.0,4.0,Mackb1.jpg,66.0,1.0,1.0,0.0,chosen,1.0,1.0,883.0,-0.6183032143113802,5.0,1881.0,-0.3009190567728957
539,Exp1,d11032021,LBPHd,outcome_evaluation,19.0,1.0,35.0,Wdeka1.jpg,65.0,0.0,1.0,0.0,unchosen,0.0,0.0,1251.0,-0.090010707075281,2.0,1957.0,-0.1654742932861318
540,Exp1,d11032021,LBPHd,outcome_evaluation,20.0,1.0,29.0,Clifb1.jpg,55.0,1.0,1.0,0.0,chosen,1.0,1.0,975.0,-0.4862300875023554,6.0,2408.0,0.6382834479313751
541,Exp1,d11032021,LBPHd,outcome_evaluation,21.0,1.0,21.0,Lewb1n.jpg,72.0,0.0,-1.0,0.0,unchosen,0.0,1.0,1077.0,-0.3398011860401758,2.0,1655.0,-0.7036890113519569
542,Exp1,d11032021,LBPHd,outcome_evaluation,22.0,1.0,51.0,Gora1n.jpg,63.0,1.0,-1.0,0.0,chosen,1.0,0.0,1248.0,-0.0943174394712275,3.0,1457.0,-1.0565582635937891
543,Exp1,d11032021,LBPHd,outcome_evaluation,23.0,1.0,25.0,Clifa1.jpg,56.0,1.0,-1.0,0.0,chosen,0.0,1.0,998.0,-0.4532118058000992,5.0,1959.0,-0.1619099574049012
544,Exp1,d11032021,LBPHd,outcome_evaluation,24.0,1.0,14.0,Kupkb1.jpg,64.0,1.0,1.0,0.0,chosen,1.0,1.0,792.0,-0.7489407636550895,6.0,1935.0,-0.2046819879796687
545,Exp1,d11032021,LBPHd,outcome_evaluation,25.0,1.0,48.0,Picb1n.jpg,60.0,,1.0,1.0,novel,0.0,0.0,1613.0,0.4296683353689251,3.0,1607.0,-0.789233072501492
546,Exp1,d11032021,LBPHd,outcome_evaluation,26.0,0.0,58.0,Mackc1.jpg,57.0,0.0,1.0,0.0,unchosen,0.0,0.0,1239.0,-0.1072376366590669,2.0,2254.0,0.3638295850766166
547,Exp1,d11032021,LBPHd,outcome_evaluation,27.0,1.0,33.0,Kupc1n.jpg,54.0,0.0,1.0,0.0,unchosen,0.0,0.0,1478.0,0.2358653775513344,3.0,2359.0,0.5509572188412247
548,Exp1,d11032021,LBPHd,outcome_evaluation,28.0,0.0,46.0,Deka1n.jpg,68.0,1.0,1.0,0.0,chosen,1.0,1.0,686.0,-0.9011119749785312,5.0,2015.0,-0.0621085527304435
549,Exp1,d11032021,LBPHd,outcome_evaluation,29.0,1.0,27.0,Vinb1n.jpg,46.0,0.0,-1.0,0.0,unchosen,0.0,1.0,1103.0,-0.3024761719419731,2.0,2271.0,0.394126440067077
550,Exp1,d11032021,LBPHd,outcome_evaluation,30.0,1.0,34.0,Monb1n.jpg,57.0,,-1.0,1.0,novel,0.0,1.0,1019.0,-0.423064679028474,2.0,1534.0,-0.91933133216641
551,Exp1,d11032021,LBPHd,outcome_evaluation,31.0,0.0,36.0,Gorkf1.jpg,60.0,0.0,-1.0,0.0,unchosen,0.0,1.0,1221.0,-0.1330780310347457,2.0,1510.0,-0.9621033627411776
552,Exp1,d11032021,LBPHd,outcome_evaluation,32.0,1.0,52.0,Picaa1.jpg,62.0,,-1.0,1.0,novel,0.0,1.0,1198.0,-0.1660963127370019,2.0,2154.0,0.1856127910150852
553,Exp1,d11032021,LBPHd,outcome_evaluation,33.0,1.0,30.0,Lasse1.jpg,60.0,,1.0,1.0,novel,1.0,1.0,1148.0,-0.2378751860027762,3.0,1335.0,-1.2739827523488576
554,Exp1,d11032021,LBPHd,outcome_evaluation,34.0,1.0,55.0,Lewic1.jpg,71.0,,-1.0,1.0,novel,1.0,0.0,1077.0,-0.3398011860401758,3.0,1536.0,-0.9157669962851792
555,Exp1,d11032021,LBPHd,outcome_evaluation,35.0,0.0,15.0,Clia1n.jpg,64.0,1.0,-1.0,0.0,chosen,1.0,0.0,989.0,-0.4661320029879386,3.0,1433.0,-1.0993302941685568
556,Exp1,d11032021,LBPHd,outcome_evaluation,36.0,1.0,22.0,Macb1n.jpg,66.0,0.0,-1.0,0.0,unchosen,0.0,1.0,1820.0,0.7268328706892309,2.0,2081.0,0.0555145313501672
557,Exp1,d11032021,LBPHd,outcome_evaluation,37.0,0.0,6.0,Wdekc1.jpg,56.0,0.0,1.0,0.0,unchosen,0.0,0.0,954.0,-0.5163772142739806,2.0,2944.0,1.5935254641011838
558,Exp1,d11032021,LBPHd,outcome_evaluation,38.0,0.0,37.0,Mondb1.jpg,57.0,0.0,1.0,0.0,unchosen,1.0,1.0,868.0,-0.6398368762911125,4.0,1795.0,-0.4541854996658128
559,Exp1,d11032021,LBPHd,outcome_evaluation,39.0,1.0,12.0,Kupkc1.jpg,46.0,,1.0,1.0,novel,0.0,0.0,867.0,-0.641272453756428,2.0,1577.0,-0.8426981107199515
560,Exp1,d11032021,mRarI,outcome_evaluation,0.0,1.0,59.0,Kraa1n.jpg,13.0,1.0,1.0,0.0,chosen,1.0,1.0,1285.0,1.1140668179579418,6.0,2230.0,2.2329465028914965
561,Exp1,d11032021,mRarI,outcome_evaluation,1.0,0.0,28.0,Krasa1.jpg,9.0,0.0,1.0,0.0,unchosen,1.0,1.0,1520.0,1.89278693164062,3.0,1487.0,0.0621581719263573
562,Exp1,d11032021,mRarI,outcome_evaluation,2.0,0.0,32.0,Macka1.jpg,8.0,1.0,1.0,0.0,chosen,1.0,1.0,1144.0,0.6468347497483352,6.0,1389.0,-0.2241638421174968
563,Exp1,d11032021,mRarI,outcome_evaluation,3.0,0.0,21.0,Lewb1n.jpg,9.0,1.0,1.0,0.0,chosen,1.0,1.0,698.0,-0.8310766149430451,6.0,1350.0,-0.3381083170941326
564,Exp1,d11032021,mRarI,outcome_evaluation,4.0,0.0,33.0,Kupc1n.jpg,7.0,0.0,1.0,0.0,unchosen,0.0,0.0,618.0,-1.096172823856297,3.0,1592.0,0.3689317584019154
565,Exp1,d11032021,mRarI,outcome_evaluation,5.0,1.0,50.0,Gorke1.jpg,9.0,1.0,-1.0,0.0,chosen,0.0,1.0,686.0,-0.8708410462800329,3.0,2437.0,2.837728716229025
566,Exp1,d11032021,mRarI,outcome_evaluation,6.0,0.0,53.0,Gorka1.jpg,11.0,1.0,-1.0,0.0,chosen,1.0,0.0,1698.0,2.482625996472606,3.0,1687.0,0.6464888128321822
567,Exp1,d11032021,mRarI,outcome_evaluation,7.0,0.0,26.0,Clib1n.jpg,12.0,1.0,-1.0,0.0,chosen,0.0,1.0,905.0,-0.1451401743800053,6.0,1695.0,0.6698620384684152
568,Exp1,d11032021,mRarI,outcome_evaluation,8.0,1.0,6.0,Wdekc1.jpg,10.0,,1.0,1.0,novel,1.0,1.0,1662.0,2.3633327024616424,1.0,1702.0,0.6903136109001191
569,Exp1,d11032021,mRarI,outcome_evaluation,9.0,1.0,40.0,Krab1n.jpg,9.0,,1.0,1.0,novel,0.0,0.0,1109.0,0.5308551583487874,1.0,1607.0,0.4127565564698522
570,Exp1,d11032021,mRarI,outcome_evaluation,10.0,1.0,47.0,Kupkd1.jpg,11.0,,-1.0,1.0,novel,0.0,1.0,962.0,0.0437408744706867,1.0,1351.0,-0.3351866638896035
571,Exp1,d11032021,mRarI,outcome_evaluation,11.0,1.0,13.0,Picak1.jpg,9.0,1.0,-1.0,0.0,chosen,0.0,1.0,931.0,-0.0589839064831984,6.0,1723.0,0.7516683281952307
572,Exp1,d11032021,mRarI,outcome_evaluation,12.0,1.0,25.0,Clifa1.jpg,7.0,,-1.0,1.0,novel,0.0,1.0,995.0,0.1530930606474032,1.0,1322.0,-0.4199146068209481
573,Exp1,d11032021,mRarI,outcome_evaluation,13.0,1.0,49.0,Hinda1.jpg,11.0,0.0,-1.0,0.0,unchosen,0.0,1.0,824.0,-0.413550085904673,1.0,1604.0,0.4039915968562649
574,Exp1,d11032021,mRarI,outcome_evaluation,14.0,0.0,44.0,Lassf1.jpg,11.0,1.0,1.0,0.0,chosen,1.0,1.0,784.0,-0.546098190361299,6.0,1450.0,-0.0459429966412202
575,Exp1,d11032021,mRarI,outcome_evaluation,15.0,0.0,4.0,Mackb1.jpg,8.0,0.0,1.0,0.0,unchosen,0.0,0.0,1200.0,0.8324020959876116,2.0,1292.0,-0.5075642029568218
576,Exp1,d11032021,mRarI,outcome_evaluation,16.0,1.0,2.0,Dekob1.jpg,9.0,0.0,1.0,0.0,unchosen,0.0,0.0,787.0,-0.5361570825270521,2.0,1590.0,0.3630884519928571
577,Exp1,d11032021,mRarI,outcome_evaluation,17.0,1.0,20.0,Gorc1n.jpg,11.0,0.0,-1.0,0.0,unchosen,1.0,0.0,1066.0,0.3883659460579144,4.0,1434.0,-0.0926894479136861
578,Exp1,d11032021,mRarI,outcome_evaluation,18.0,1.0,34.0,Monb1n.jpg,12.0,1.0,-1.0,0.0,chosen,1.0,0.0,666.0,-0.9371150985083458,4.0,1561.0,0.2783605090615125
579,Exp1,d11032021,mRarI,outcome_evaluation,19.0,0.0,10.0,Stera1.jpg,7.0,1.0,-1.0,0.0,chosen,0.0,1.0,749.0,-0.6620777817608469,3.0,1054.0,-1.202917665634753
580,Exp1,d11032021,mRarI,outcome_evaluation,20.0,1.0,18.0,Krasb1.jpg,12.0,,1.0,1.0,novel,0.0,0.0,867.0,-0.2710608736138,3.0,1183.0,-0.8260244022504963
581,Exp1,d11032021,mRarI,outcome_evaluation,21.0,1.0,46.0,Deka1n.jpg,7.0,0.0,1.0,0.0,unchosen,0.0,0.0,842.0,-0.3539034388991913,2.0,1322.0,-0.4199146068209481
582,Exp1,d11032021,mRarI,outcome_evaluation,22.0,1.0,37.0,Mondb1.jpg,8.0,1.0,1.0,0.0,chosen,1.0,1.0,1818.0,2.880270309842484,6.0,1589.0,0.360166798788328
583,Exp1,d11032021,mRarI,outcome_evaluation,23.0,1.0,52.0,Picaa1.jpg,11.0,0.0,-1.0,0.0,unchosen,0.0,1.0,794.0,-0.5129611642471426,3.0,1422.0,-0.1277492863680356
584,Exp1,d11032021,mRarI,outcome_evaluation,24.0,0.0,24.0,Dekoa1.jpg,12.0,0.0,1.0,0.0,unchosen,0.0,0.0,650.0,-0.9901343402909962,3.0,1023.0,-1.2934889149751565
585,Exp1,d11032021,mRarI,outcome_evaluation,25.0,1.0,11.0,Wdekb1.jpg,7.0,,-1.0,1.0,novel,0.0,1.0,691.0,-0.8542725332229546,3.0,1038.0,-1.2496641169072191
586,Exp1,d11032021,mRarI,outcome_evaluation,26.0,0.0,56.0,Luisc1.jpg,13.0,1.0,-1.0,0.0,chosen,0.0,1.0,930.0,-0.062297609094614,6.0,1567.0,0.2958904282886873
587,Exp1,d11032021,mRarI,outcome_evaluation,27.0,1.0,48.0,Picb1n.jpg,11.0,1.0,1.0,0.0,chosen,1.0,1.0,690.0,-0.8575862358343702,6.0,1293.0,-0.5046425497522927
588,Exp1,d11032021,mRarI,outcome_evaluation,28.0,1.0,55.0,Lewic1.jpg,11.0,0.0,1.0,0.0,unchosen,0.0,0.0,864.0,-0.281001981448047,3.0,1117.0,-1.0188535137494186
589,Exp1,d11032021,mRarI,outcome_evaluation,29.0,1.0,38.0,Lasc1n.jpg,12.0,,-1.0,1.0,novel,0.0,1.0,980.0,0.1033875214761684,2.0,2592.0,3.2905849629310397
590,Exp1,d11032021,mRarI,outcome_evaluation,30.0,1.0,0.0,Gorkc1.jpg,11.0,1.0,-1.0,0.0,chosen,0.0,1.0,908.0,-0.1351990665457584,4.0,1282.0,-0.5367807350021131
591,Exp1,d11032021,mRarI,outcome_evaluation,31.0,0.0,30.0,Lasse1.jpg,9.0,1.0,1.0,0.0,chosen,1.0,1.0,806.0,-0.4731967329101547,6.0,1595.0,0.3776967180155028
592,Exp1,d11032021,mRarI,outcome_evaluation,32.0,1.0,7.0,Pica1n.jpg,10.0,1.0,1.0,0.0,chosen,1.0,1.0,621.0,-1.08623171602205,6.0,1135.0,-0.9662637560678944
593,Exp1,d11032021,mRarI,outcome_evaluation,33.0,0.0,27.0,Vinb1n.jpg,12.0,0.0,-1.0,0.0,unchosen,1.0,0.0,1070.0,0.401620756503577,4.0,1148.0,-0.9282822644090156
594,Exp1,d11032021,mRarI,outcome_evaluation,34.0,0.0,15.0,Clia1n.jpg,12.0,0.0,-1.0,0.0,unchosen,1.0,0.0,802.0,-0.4864515433558173,6.0,1311.0,-0.4520527920707685
595,Exp1,d11032021,mRarI,outcome_evaluation,35.0,1.0,19.0,Macc1n.jpg,11.0,0.0,1.0,0.0,unchosen,1.0,1.0,820.0,-0.4268048963503356,3.0,1551.0,0.2491439770162213
596,Exp1,d11032021,mRarI,outcome_evaluation,36.0,0.0,41.0,Vincb1.jpg,7.0,0.0,-1.0,0.0,unchosen,0.0,1.0,577.0,-1.2320346309243388,2.0,1126.0,-0.9925586349086564
597,Exp1,d11032021,mRarI,outcome_evaluation,37.0,0.0,31.0,Maca1n.jpg,11.0,0.0,-1.0,0.0,unchosen,1.0,0.0,996.0,0.1564067632588188,5.0,1295.0,-0.4987992433432344
598,Exp1,d11032021,mRarI,outcome_evaluation,38.0,1.0,22.0,Macb1n.jpg,8.0,0.0,-1.0,0.0,unchosen,0.0,1.0,1208.0,0.8589117168789367,3.0,1142.0,-0.9458121836361904
599,Exp1,d11032021,mRarI,outcome_evaluation,39.0,1.0,43.0,Picac1.jpg,14.0,,1.0,1.0,novel,0.0,0.0,729.0,-0.7283518339891598,1.0,1341.0,-0.3644031959348947
600,Exp1,d11032021,zwAoN,outcome_evaluation,0.0,1.0,7.0,Pica1n.jpg,50.0,0.0,1.0,0.0,unchosen,1.0,1.0,1695.0,-0.0171895174510669,5.0,3698.0,1.9655311133123283
601,Exp1,d11032021,zwAoN,outcome_evaluation,1.0,1.0,12.0,Kupkc1.jpg,64.0,1.0,-1.0,0.0,chosen,0.0,1.0,444.0,-0.2506757968352665,3.0,3086.0,1.209165450278676
602,Exp1,d11032021,zwAoN,outcome_evaluation,2.0,1.0,43.0,Picac1.jpg,56.0,,1.0,1.0,novel,1.0,1.0,867.0,-0.1717271987701054,4.0,2332.0,0.2773031791555159
603,Exp1,d11032021,zwAoN,outcome_evaluation,3.0,0.0,15.0,Clia1n.jpg,58.0,0.0,1.0,0.0,unchosen,0.0,0.0,1740.0,-0.0087907304228583,4.0,2230.0,0.1512422353165738
604,Exp1,d11032021,zwAoN,outcome_evaluation,4.0,0.0,42.0,Picc1n.jpg,64.0,1.0,-1.0,0.0,chosen,1.0,0.0,737.0,-0.1959903612960415,3.0,2217.0,0.1351756444351401
605,Exp1,d11032021,zwAoN,outcome_evaluation,5.0,1.0,28.0,Krasa1.jpg,58.0,0.0,1.0,0.0,unchosen,0.0,0.0,500.0,-0.2402239729779402,4.0,1493.0,-0.7596098785000959
606,Exp1,d11032021,zwAoN,outcome_evaluation,6.0,0.0,9.0,Lassc1.jpg,57.0,0.0,1.0,0.0,unchosen,0.0,0.0,1045.0,-0.1385053300807469,2.0,1829.0,-0.3443502987953454
607,Exp1,d11032021,zwAoN,outcome_evaluation,7.0,1.0,14.0,Kupkb1.jpg,50.0,0.0,-1.0,0.0,unchosen,1.0,0.0,1397.0,-0.0728081515489817,4.0,1989.0,-0.1466076417930833
608,Exp1,d11032021,zwAoN,outcome_evaluation,8.0,0.0,22.0,Macb1n.jpg,42.0,0.0,-1.0,0.0,unchosen,0.0,1.0,469.0,-0.2460098040418172,2.0,2175.0,0.0832681969720463
609,Exp1,d11032021,zwAoN,outcome_evaluation,9.0,1.0,5.0,Kupb1n.jpg,55.0,0.0,-1.0,0.0,unchosen,1.0,0.0,483.0,-0.2433968480774856,2.0,1714.0,-0.4864778335157213
610,Exp1,d11032021,zwAoN,outcome_evaluation,10.0,0.0,49.0,Hinda1.jpg,64.0,1.0,1.0,0.0,chosen,1.0,1.0,10.0,-0.3316774317295451,2.0,1209.0,-1.110603094679111
611,Exp1,d11032021,zwAoN,outcome_evaluation,11.0,1.0,20.0,Gorc1n.jpg,50.0,,1.0,1.0,novel,1.0,1.0,187.0,-0.2986422027519245,2.0,1349.0,-0.9375782698021315
612,Exp1,d11032021,zwAoN,outcome_evaluation,12.0,1.0,19.0,Macc1n.jpg,42.0,1.0,-1.0,0.0,chosen,0.0,1.0,308.0,-0.2760587976316302,2.0,1596.0,-0.6323130430548897
613,Exp1,d11032021,zwAoN,outcome_evaluation,13.0,0.0,35.0,Wdeka1.jpg,59.0,1.0,-1.0,0.0,chosen,1.0,0.0,271.0,-0.2829644669659351,3.0,1541.0,-0.7002870813994172
614,Exp1,d11032021,zwAoN,outcome_evaluation,14.0,1.0,47.0,Kupkd1.jpg,55.0,0.0,1.0,0.0,unchosen,1.0,1.0,271.0,-0.2829644669659351,3.0,1473.0,-0.7843277106253786
615,Exp1,d11032021,zwAoN,outcome_evaluation,15.0,1.0,17.0,Picab1.jpg,39.0,,-1.0,1.0,novel,0.0,1.0,1386.0,-0.0748611883780994,3.0,1596.0,-0.6323130430548897
616,Exp1,d11032021,zwAoN,outcome_evaluation,16.0,0.0,4.0,Mackb1.jpg,40.0,1.0,-1.0,0.0,chosen,1.0,0.0,354.0,-0.2674733708916837,3.0,1281.0,-1.021618899028093
617,Exp1,d11032021,zwAoN,outcome_evaluation,17.0,1.0,2.0,Dekob1.jpg,39.0,1.0,-1.0,0.0,chosen,0.0,1.0,1135.0,-0.1217077560243297,4.0,2170.0,0.0770887389407256
618,Exp1,d11032021,zwAoN,outcome_evaluation,18.0,1.0,53.0,Gorka1.jpg,62.0,0.0,-1.0,0.0,unchosen,0.0,1.0,1339.0,-0.083633254829784,3.0,1713.0,-0.4877137251219854
619,Exp1,d11032021,zwAoN,outcome_evaluation,19.0,1.0,33.0,Kupc1n.jpg,61.0,,1.0,1.0,novel,0.0,0.0,641.0,-0.2139077736228865,3.0,2429.0,0.3971846649631373
620,Exp1,d11032021,zwAoN,outcome_evaluation,20.0,1.0,51.0,Gora1n.jpg,50.0,1.0,1.0,0.0,chosen,1.0,1.0,1112.0,-0.126000469394303,3.0,1142.0,-1.1934078322988082
621,Exp1,d11032021,zwAoN,outcome_evaluation,21.0,0.0,26.0,Clib1n.jpg,50.0,0.0,-1.0,0.0,unchosen,1.0,0.0,2379.0,0.110472045377704,3.0,1992.0,-0.1428999669742909
622,Exp1,d11032021,zwAoN,outcome_evaluation,22.0,1.0,59.0,Kraa1n.jpg,62.0,0.0,-1.0,0.0,unchosen,0.0,1.0,990.0,-0.1487705142263352,3.0,3109.0,1.2375909572227513
623,Exp1,d11032021,zwAoN,outcome_evaluation,23.0,0.0,38.0,Lasc1n.jpg,64.0,0.0,-1.0,0.0,unchosen,0.0,1.0,981.0,-0.150450271631977,1.0,2209.0,0.125288511585027
624,Exp1,d11032021,zwAoN,outcome_evaluation,24.0,1.0,45.0,Klia1n.jpg,65.0,,-1.0,1.0,novel,0.0,1.0,266.0,-0.283897665524625,1.0,1637.0,-0.58164148719806
625,Exp1,d11032021,zwAoN,outcome_evaluation,25.0,0.0,10.0,Stera1.jpg,39.0,0.0,1.0,0.0,unchosen,1.0,1.0,637.0,-0.2146543324698384,1.0,1867.0,-0.2973864177573082
626,Exp1,d11032021,zwAoN,outcome_evaluation,26.0,0.0,40.0,Krab1n.jpg,56.0,1.0,1.0,0.0,chosen,1.0,1.0,1309.0,-0.089232446181923,3.0,2158.0,0.0622580396655559
627,Exp1,d11032021,zwAoN,outcome_evaluation,27.0,0.0,56.0,Luisc1.jpg,38.0,0.0,-1.0,0.0,unchosen,1.0,0.0,801.0,-0.1840454197448114,2.0,2966.0,1.0608584575269795
628,Exp1,d11032021,zwAoN,outcome_evaluation,28.0,1.0,29.0,Clifb1.jpg,50.0,,-1.0,1.0,novel,1.0,0.0,1629.0,-0.0295077384257729,1.0,3401.0,1.5984713062518796
629,Exp1,d11032021,zwAoN,outcome_evaluation,29.0,1.0,31.0,Maca1n.jpg,60.0,1.0,1.0,0.0,chosen,1.0,1.0,832.0,-0.1782595886809344,3.0,3121.0,1.252421656497921
630,Exp1,d11032021,zwAoN,outcome_evaluation,30.0,0.0,23.0,Lewib1.jpg,64.0,1.0,1.0,0.0,chosen,1.0,1.0,34627.0,6.129229469503737,2.0,2290.0,0.2253957316924221
631,Exp1,d11032021,zwAoN,outcome_evaluation,31.0,1.0,34.0,Monb1n.jpg,58.0,,-1.0,1.0,novel,0.0,1.0,673.0,-0.2079353028472715,2.0,1721.0,-0.4778265922718723
632,Exp1,d11032021,zwAoN,outcome_evaluation,32.0,1.0,57.0,Lewc1n.jpg,58.0,1.0,-1.0,0.0,chosen,1.0,0.0,939.0,-0.1582891395249717,2.0,1246.0,-1.064875105247338
633,Exp1,d11032021,zwAoN,outcome_evaluation,33.0,1.0,0.0,Gorkc1.jpg,50.0,0.0,1.0,0.0,unchosen,0.0,0.0,1259.0,-0.0985644317688215,1.0,1463.0,-0.7966866266880199
634,Exp1,d11032021,zwAoN,outcome_evaluation,34.0,1.0,6.0,Wdekc1.jpg,40.0,,1.0,1.0,novel,0.0,0.0,1798.0,0.0020343728579438,1.0,1974.0,-0.1651460158870454
635,Exp1,d11032021,zwAoN,outcome_evaluation,35.0,0.0,48.0,Picb1n.jpg,62.0,1.0,-1.0,0.0,chosen,0.0,1.0,1488.0,-0.0558239377808265,2.0,1790.0,-0.3925500714396468
636,Exp1,d11032021,zwAoN,outcome_evaluation,36.0,0.0,8.0,Klina1.jpg,63.0,0.0,1.0,0.0,unchosen,1.0,1.0,2438.0,0.1214837883702441,3.0,5315.0,3.96396784064144
637,Exp1,d11032021,zwAoN,outcome_evaluation,37.0,1.0,55.0,Lewic1.jpg,59.0,1.0,1.0,0.0,chosen,0.0,0.0,473.0,-0.2452632451948653,3.0,1677.0,-0.5322058229474944
638,Exp1,d11032021,zwAoN,outcome_evaluation,38.0,1.0,13.0,Picak1.jpg,61.0,1.0,1.0,0.0,chosen,0.0,0.0,1316.0,-0.0879259681997572,3.0,1781.0,-0.403673095896024
639,Exp1,d11032021,zwAoN,outcome_evaluation,39.0,0.0,30.0,Lasse1.jpg,50.0,1.0,1.0,0.0,chosen,1.0,1.0,258.0,-0.2853907832185287,5.0,2326.0,0.2698878295179311
640,Exp1,d11032021,XikH0,outcome_evaluation,0.0,0.0,46.0,Deka1n.jpg,82.0,0.0,-1.0,0.0,unchosen,0.0,1.0,517.0,0.5968897990017656,4.0,7606.0,5.168627365969754
641,Exp1,d11032021,XikH0,outcome_evaluation,1.0,1.0,25.0,Clifa1.jpg,80.0,0.0,-1.0,0.0,unchosen,0.0,1.0,314.0,0.0666693452336508,5.0,2103.0,0.3387414958347459
642,Exp1,d11032021,XikH0,outcome_evaluation,2.0,0.0,59.0,Kraa1n.jpg,61.0,0.0,1.0,0.0,unchosen,1.0,1.0,272.0,-0.0430314383045798,4.0,1669.0,-0.0421726360276189
643,Exp1,d11032021,XikH0,outcome_evaluation,3.0,1.0,54.0,Kupka1.jpg,61.0,1.0,1.0,0.0,chosen,1.0,1.0,219.0,-0.1814633794361566,4.0,1715.0,-0.0017992487795341
644,Exp1,d11032021,XikH0,outcome_evaluation,4.0,1.0,43.0,Picac1.jpg,74.0,,1.0,1.0,novel,0.0,0.0,39.0,-0.6516095946000022,6.0,1180.0,-0.4713592961213894
645,Exp1,d11032021,XikH0,outcome_evaluation,5.0,0.0,37.0,Mondb1.jpg,77.0,1.0,1.0,0.0,chosen,0.0,0.0,248.0,-0.1057176003264259,4.0,3167.0,1.2725954965295758
646,Exp1,d11032021,XikH0,outcome_evaluation,6.0,0.0,31.0,Maca1n.jpg,78.0,0.0,-1.0,0.0,unchosen,0.0,1.0,109.0,-0.4687749553696178,4.0,3603.0,1.6552649930549008
647,Exp1,d11032021,XikH0,outcome_evaluation,7.0,1.0,3.0,Fogeg1.jpg,76.0,1.0,-1.0,0.0,chosen,1.0,0.0,144.0,-0.3773576357544256,4.0,1146.0,-0.501200495391713
648,Exp1,d11032021,XikH0,outcome_evaluation,8.0,1.0,29.0,Clifb1.jpg,71.0,,1.0,1.0,novel,1.0,1.0,284.0,-0.0116883572936567,4.0,1184.0,-0.467848566795469
649,Exp1,d11032021,XikH0,outcome_evaluation,9.0,0.0,58.0,Mackc1.jpg,69.0,1.0,-1.0,0.0,chosen,0.0,1.0,35.0,-0.66205728827031,5.0,1476.0,-0.2115653260032788
650,Exp1,d11032021,XikH0,outcome_evaluation,10.0,0.0,5.0,Kupb1n.jpg,76.0,1.0,-1.0,0.0,chosen,0.0,1.0,557.0,0.7013667357048425,4.0,2049.0,0.2913466499348203
651,Exp1,d11032021,XikH0,outcome_evaluation,11.0,1.0,2.0,Dekob1.jpg,76.0,1.0,-1.0,0.0,chosen,0.0,1.0,542.0,0.6621878844411887,5.0,1562.0,-0.1360846454959899
652,Exp1,d11032021,XikH0,outcome_evaluation,12.0,1.0,24.0,Dekoa1.jpg,69.0,0.0,-1.0,0.0,unchosen,1.0,0.0,286.0,-0.0064645104585029,3.0,1195.0,-0.4581940611491878
653,Exp1,d11032021,XikH0,outcome_evaluation,13.0,0.0,22.0,Macb1n.jpg,82.0,0.0,1.0,0.0,unchosen,0.0,0.0,378.0,0.2338324439585737,4.0,1583.0,-0.1176533165349077
654,Exp1,d11032021,XikH0,outcome_evaluation,14.0,1.0,44.0,Lassf1.jpg,65.0,1.0,1.0,0.0,chosen,1.0,1.0,389.0,0.2625636015519199,4.0,2152.0,0.3817479300772709
655,Exp1,d11032021,XikH0,outcome_evaluation,15.0,1.0,40.0,Krab1n.jpg,61.0,0.0,-1.0,0.0,unchosen,0.0,1.0,269.0,-0.0508672085573105,4.0,1275.0,-0.3879794746307796
656,Exp1,d11032021,XikH0,outcome_evaluation,16.0,0.0,13.0,Picak1.jpg,67.0,0.0,-1.0,0.0,unchosen,1.0,0.0,161.0,-0.332954937655618,4.0,967.0,-0.6583056327266514
657,Exp1,d11032021,XikH0,outcome_evaluation,17.0,0.0,35.0,Wdeka1.jpg,82.0,0.0,-1.0,0.0,unchosen,1.0,0.0,53.0,-0.6150426667539254,4.0,1448.0,-0.2361404312847217
658,Exp1,d11032021,XikH0,outcome_evaluation,18.0,1.0,1.0,Lewia1.jpg,61.0,,-1.0,1.0,novel,0.0,1.0,281.0,-0.0195241275463875,4.0,1153.0,-0.4950567190713522
659,Exp1,d11032021,XikH0,outcome_evaluation,19.0,1.0,6.0,Wdekc1.jpg,66.0,0.0,1.0,0.0,unchosen,0.0,0.0,209.0,-0.2075826136119258,4.0,2380.0,0.5818595016547344
660,Exp1,d11032021,XikH0,outcome_evaluation,20.0,1.0,26.0,Clib1n.jpg,85.0,,-1.0,1.0,novel,0.0,1.0,131.0,-0.4113126401829256,4.0,782.0,-0.8206768640504705
661,Exp1,d11032021,XikH0,outcome_evaluation,21.0,0.0,41.0,Vincb1.jpg,70.0,1.0,1.0,0.0,chosen,1.0,1.0,69.0,-0.5732518920726947,4.0,1447.0,-0.2370181136162018
662,Exp1,d11032021,XikH0,outcome_evaluation,22.0,1.0,49.0,Hinda1.jpg,83.0,,-1.0,1.0,novel,1.0,0.0,16.0,-0.7116838332042714,4.0,1714.0,-0.0026769311110142
663,Exp1,d11032021,XikH0,outcome_evaluation,23.0,1.0,12.0,Kupkc1.jpg,84.0,1.0,-1.0,0.0,chosen,0.0,1.0,599.0,0.8110675192430732,4.0,2108.0,0.3431299074921464
664,Exp1,d11032021,XikH0,outcome_evaluation,24.0,1.0,36.0,Gorkf1.jpg,77.0,,1.0,1.0,novel,1.0,1.0,87.0,-0.5262372705563101,4.0,1337.0,-0.3335631700790132
665,Exp1,d11032021,XikH0,outcome_evaluation,25.0,1.0,47.0,Kupkd1.jpg,67.0,1.0,1.0,0.0,chosen,1.0,1.0,158.0,-0.3407907079083487,4.0,1014.0,-0.6170545631470865
666,Exp1,d11032021,XikH0,outcome_evaluation,26.0,0.0,16.0,Lewa1n.jpg,68.0,1.0,-1.0,0.0,chosen,1.0,0.0,200.0,-0.2310899243701181,4.0,769.0,-0.8320867343597118
667,Exp1,d11032021,XikH0,outcome_evaluation,27.0,0.0,23.0,Lewib1.jpg,74.0,0.0,1.0,0.0,unchosen,0.0,0.0,108.0,-0.4713868787871947,4.0,2311.0,0.5212994207826074
668,Exp1,d11032021,XikH0,outcome_evaluation,28.0,0.0,19.0,Macc1n.jpg,68.0,1.0,1.0,0.0,chosen,0.0,0.0,0.0,-0.7534746078855021,4.0,1116.0,-0.527530965336116
669,Exp1,d11032021,XikH0,outcome_evaluation,29.0,1.0,56.0,Luisc1.jpg,71.0,0.0,1.0,0.0,unchosen,0.0,0.0,481.0,0.5028605559689966,4.0,1209.0,-0.4459065085084664
670,Exp1,d11032021,XikH0,outcome_evaluation,30.0,1.0,30.0,Lasse1.jpg,65.0,1.0,1.0,0.0,chosen,1.0,1.0,35.0,-0.66205728827031,4.0,1585.0,-0.1158979518719476
671,Exp1,d11032021,XikH0,outcome_evaluation,31.0,1.0,33.0,Kupc1n.jpg,74.0,,1.0,1.0,novel,0.0,0.0,450.0,0.421890930024112,4.0,1339.0,-0.331807805416053
672,Exp1,d11032021,XikH0,outcome_evaluation,32.0,1.0,45.0,Klia1n.jpg,67.0,,-1.0,1.0,novel,1.0,0.0,53.0,-0.6150426667539254,4.0,830.0,-0.7785481121394255
673,Exp1,d11032021,XikH0,outcome_evaluation,33.0,0.0,32.0,Macka1.jpg,72.0,1.0,1.0,0.0,chosen,0.0,0.0,147.0,-0.3695218655016948,5.0,1071.0,-0.5670266702527207
674,Exp1,d11032021,XikH0,outcome_evaluation,34.0,1.0,27.0,Vinb1n.jpg,63.0,0.0,-1.0,0.0,unchosen,1.0,0.0,180.0,-0.2833283927216565,4.0,739.0,-0.858417204304115
675,Exp1,d11032021,XikH0,outcome_evaluation,35.0,0.0,34.0,Monb1n.jpg,74.0,0.0,1.0,0.0,unchosen,1.0,1.0,57.0,-0.6045949730836178,4.0,2407.0,0.6055569246046972
676,Exp1,d11032021,XikH0,outcome_evaluation,36.0,0.0,55.0,Lewic1.jpg,84.0,1.0,-1.0,0.0,chosen,0.0,1.0,2371.0,5.439395815189377,4.0,1354.0,-0.3186425704438514
677,Exp1,d11032021,XikH0,outcome_evaluation,37.0,1.0,17.0,Picab1.jpg,63.0,0.0,1.0,0.0,unchosen,1.0,1.0,8.0,-0.7325792205448868,4.0,2038.0,0.2816921442885391
678,Exp1,d11032021,XikH0,outcome_evaluation,38.0,1.0,4.0,Mackb1.jpg,85.0,1.0,-1.0,0.0,chosen,0.0,1.0,604.0,0.8241271363309578,4.0,1761.0,0.0385741384685505
679,Exp1,d11032021,XikH0,outcome_evaluation,39.0,1.0,14.0,Kupkb1.jpg,66.0,0.0,1.0,0.0,unchosen,0.0,0.0,479.0,0.4976367091338427,4.0,1138.0,-0.5082219540435537
680,Exp1,d11042021,pKoz9,outcome_evaluation,0.0,1.0,13.0,Picak1.jpg,37.0,1.0,1.0,0.0,chosen,1.0,1.0,2049.0,1.5184518698124967,6.0,3630.0,0.7299277550174817
681,Exp1,d11042021,pKoz9,outcome_evaluation,1.0,0.0,42.0,Picc1n.jpg,46.0,1.0,1.0,0.0,chosen,1.0,1.0,742.0,-0.617899047967781,6.0,3251.0,0.327801700578023
682,Exp1,d11042021,pKoz9,outcome_evaluation,2.0,0.0,15.0,Clia1n.jpg,26.0,0.0,1.0,0.0,unchosen,1.0,1.0,3054.0,3.1611700583122517,3.0,2545.0,-0.4212774404094648
683,Exp1,d11042021,pKoz9,outcome_evaluation,3.0,1.0,12.0,Kupkc1.jpg,49.0,,1.0,1.0,novel,0.0,0.0,1094.0,-0.0425390456275684,3.0,4511.0,1.6646851533318965
684,Exp1,d11042021,pKoz9,outcome_evaluation,4.0,1.0,46.0,Deka1n.jpg,32.0,0.0,1.0,0.0,unchosen,1.0,1.0,793.0,-0.5345372294468979,5.0,2536.0,-0.4308266079291353
685,Exp1,d11042021,pKoz9,outcome_evaluation,5.0,1.0,8.0,Klina1.jpg,61.0,0.0,-1.0,0.0,unchosen,1.0,0.0,2596.0,2.412548237085497,2.0,2202.0,-0.7852068247702415
686,Exp1,d11042021,pKoz9,outcome_evaluation,6.0,1.0,34.0,Monb1n.jpg,28.0,0.0,1.0,0.0,unchosen,1.0,1.0,1019.0,-0.1651299552171023,4.0,2949.0,0.007374079362412
687,Exp1,d11042021,pKoz9,outcome_evaluation,7.0,1.0,7.0,Pica1n.jpg,65.0,,-1.0,1.0,novel,0.0,1.0,1464.0,0.5622427750141322,2.0,3115.0,0.1835031691696683
688,Exp1,d11042021,pKoz9,outcome_evaluation,8.0,1.0,52.0,Picaa1.jpg,66.0,1.0,1.0,0.0,chosen,1.0,1.0,745.0,-0.6129954115841996,6.0,3043.0,0.1071098290123041
689,Exp1,d11042021,pKoz9,outcome_evaluation,9.0,0.0,0.0,Gorkc1.jpg,24.0,0.0,1.0,0.0,unchosen,0.0,0.0,1192.0,0.1176464095694225,3.0,2058.0,-0.9379935050849698
690,Exp1,d11042021,pKoz9,outcome_evaluation,10.0,1.0,26.0,Clib1n.jpg,63.0,,1.0,1.0,novel,0.0,0.0,2227.0,1.8094009619049904,3.0,2324.0,-0.6557625539480411
691,Exp1,d11042021,pKoz9,outcome_evaluation,11.0,0.0,25.0,Clifa1.jpg,23.0,1.0,-1.0,0.0,chosen,0.0,1.0,796.0,-0.5296335930633165,6.0,2471.0,-0.4997928177934225
692,Exp1,d11042021,pKoz9,outcome_evaluation,12.0,0.0,44.0,Lassf1.jpg,34.0,0.0,1.0,0.0,unchosen,0.0,0.0,925.0,-0.3187772285693181,2.0,1946.0,-1.056827589774203
693,Exp1,d11042021,pKoz9,outcome_evaluation,13.0,1.0,37.0,Mondb1.jpg,62.0,1.0,-1.0,0.0,chosen,0.0,1.0,735.0,-0.6293408661961374,6.0,3151.0,0.2216998392483505
694,Exp1,d11042021,pKoz9,outcome_evaluation,14.0,0.0,18.0,Krasb1.jpg,57.0,0.0,-1.0,0.0,unchosen,1.0,0.0,2043.0,1.508644597045334,2.0,2492.0,-0.4775114269141912
695,Exp1,d11042021,pKoz9,outcome_evaluation,15.0,0.0,41.0,Vincb1.jpg,42.0,0.0,1.0,0.0,unchosen,0.0,0.0,962.0,-0.2582990465051481,3.0,1587.0,-1.4377332719477274
696,Exp1,d11042021,pKoz9,outcome_evaluation,16.0,0.0,24.0,Dekoa1.jpg,56.0,1.0,1.0,0.0,chosen,1.0,1.0,526.0,-0.9709608675856386,6.0,4316.0,1.457786523739035
697,Exp1,d11042021,pKoz9,outcome_evaluation,17.0,1.0,48.0,Picb1n.jpg,31.0,1.0,1.0,0.0,chosen,1.0,1.0,773.0,-0.5672281386707736,6.0,1864.0,-1.1438311160645345
698,Exp1,d11042021,pKoz9,outcome_evaluation,18.0,1.0,30.0,Lasse1.jpg,24.0,,-1.0,1.0,novel,0.0,1.0,1030.0,-0.1471499551439707,2.0,2454.0,-0.5178301342194668
699,Exp1,d11042021,pKoz9,outcome_evaluation,19.0,1.0,23.0,Lewib1.jpg,56.0,0.0,-1.0,0.0,unchosen,0.0,1.0,1485.0,0.5965682296992018,2.0,2297.0,-0.6844100565070526
700,Exp1,d11042021,pKoz9,outcome_evaluation,20.0,1.0,28.0,Krasa1.jpg,56.0,,1.0,1.0,novel,0.0,0.0,875.0,-0.4005045016290074,2.0,3319.0,0.3999509662822003
701,Exp1,d11042021,pKoz9,outcome_evaluation,21.0,1.0,10.0,Stera1.jpg,57.0,,-1.0,1.0,novel,0.0,1.0,1214.0,0.1536064097156858,2.0,4850.0,2.024370463239486
702,Exp1,d11042021,pKoz9,outcome_evaluation,22.0,0.0,53.0,Gorka1.jpg,64.0,0.0,-1.0,0.0,unchosen,0.0,1.0,859.0,-0.426657229008108,2.0,3036.0,0.0996826987192271
703,Exp1,d11042021,pKoz9,outcome_evaluation,23.0,1.0,21.0,Lewb1n.jpg,46.0,,1.0,1.0,novel,0.0,0.0,590.0,-0.8663499580692363,3.0,3836.0,0.948497589356607
704,Exp1,d11042021,pKoz9,outcome_evaluation,24.0,0.0,39.0,Dekb1n.jpg,38.0,1.0,-1.0,0.0,chosen,0.0,1.0,738.0,-0.624437229812556,6.0,5500.0,2.714032561882357
705,Exp1,d11042021,pKoz9,outcome_evaluation,25.0,1.0,35.0,Wdeka1.jpg,38.0,1.0,-1.0,0.0,chosen,0.0,1.0,768.0,-0.5754008659767424,6.0,2935.0,-0.0074801812237421
706,Exp1,d11042021,pKoz9,outcome_evaluation,26.0,1.0,47.0,Kupkd1.jpg,63.0,1.0,1.0,0.0,chosen,1.0,1.0,709.0,-0.6718390481871758,6.0,2711.0,-0.2451483506022085
707,Exp1,d11042021,pKoz9,outcome_evaluation,27.0,1.0,33.0,Kupc1n.jpg,19.0,0.0,-1.0,0.0,unchosen,0.0,1.0,742.0,-0.617899047967781,3.0,1739.0,-1.276458442726625
708,Exp1,d11042021,pKoz9,outcome_evaluation,28.0,1.0,49.0,Hinda1.jpg,34.0,1.0,-1.0,0.0,chosen,0.0,1.0,880.0,-0.3923317743230385,6.0,5474.0,2.6864460779366426
709,Exp1,d11042021,pKoz9,outcome_evaluation,29.0,0.0,59.0,Kraa1n.jpg,52.0,0.0,-1.0,0.0,unchosen,0.0,1.0,857.0,-0.4299263199304955,3.0,2295.0,-0.6865320937336461
710,Exp1,d11042021,pKoz9,outcome_evaluation,30.0,0.0,32.0,Macka1.jpg,66.0,1.0,-1.0,0.0,chosen,0.0,1.0,685.0,-0.7110681392558267,6.0,2788.0,-0.1634499173783606
711,Exp1,d11042021,pKoz9,outcome_evaluation,31.0,1.0,29.0,Clifb1.jpg,50.0,,-1.0,1.0,novel,1.0,0.0,2610.0,2.4354318735422105,5.0,3956.0,1.075819822952214
712,Exp1,d11042021,pKoz9,outcome_evaluation,32.0,1.0,17.0,Picab1.jpg,35.0,0.0,1.0,0.0,unchosen,1.0,1.0,1122.0,0.0032282272858575,6.0,2346.0,-0.6324201444555131
