,Exp,group,PID,phase,trial,stimulus_id,painting,rt,rating,zscored_rt,zscored_rating
0,Exp1,d11032021,ZGrrY,rating,0.0,46.0,Deka1n.jpg,3.924,16.0,1.8125910307582775,-1.2726062281449262
1,Exp1,d11032021,ZGrrY,rating,1.0,25.0,Clifa1.jpg,3.297,9.0,0.6849670960922105,-1.6027449655265624
2,Exp1,d11032021,ZGrrY,rating,2.0,12.0,Kupkc1.jpg,2.973,17.0,0.1022714743508928,-1.225443551376121
3,Exp1,d11032021,ZGrrY,rating,3.0,58.0,Mackc1.jpg,2.807,28.0,-0.1962701096276831,-0.7066541069192641
4,Exp1,d11032021,ZGrrY,rating,4.0,8.0,Klina1.jpg,4.06,14.0,2.057179316427472,-1.3669315816825365
5,Exp1,d11032021,ZGrrY,rating,5.0,43.0,Picac1.jpg,3.367,2.0,0.8108581254807664,-1.9328837029081989
6,Exp1,d11032021,ZGrrY,rating,6.0,16.0,Lewa1n.jpg,2.87,32.0,-0.0829681831779822,-0.5180033998440435
7,Exp1,d11032021,ZGrrY,rating,7.0,56.0,Luisc1.jpg,4.205,36.0,2.317953591589482,-0.3293526927688228
8,Exp1,d11032021,ZGrrY,rating,8.0,0.0,Gorkc1.jpg,2.739,19.0,-0.3185642524622806,-1.1311181978385108
9,Exp1,d11032021,ZGrrY,rating,9.0,35.0,Wdeka1.jpg,3.176,65.0,0.4673554595777063,1.038364933526527
10,Exp1,d11032021,ZGrrY,rating,10.0,32.0,Macka1.jpg,4.081,40.0,2.0949466252440403,-0.1407019856936021
11,Exp1,d11032021,ZGrrY,rating,11.0,31.0,Maca1n.jpg,3.85,39.0,1.6795062282618043,-0.1878646624624073
12,Exp1,d11032021,ZGrrY,rating,12.0,54.0,Kupka1.jpg,2.866,8.0,-0.0901619562858997,-1.6499076422953676
13,Exp1,d11032021,ZGrrY,rating,13.0,51.0,Gora1n.jpg,2.362,25.0,-0.9965773678835044,-0.8481421372256797
14,Exp1,d11032021,ZGrrY,rating,14.0,20.0,Gorc1n.jpg,2.661,14.0,-0.4588428280666715,-1.3669315816825365
15,Exp1,d11032021,ZGrrY,rating,15.0,13.0,Picak1.jpg,2.859,16.0,-0.1027510592247555,-1.2726062281449262
16,Exp1,d11032021,ZGrrY,rating,16.0,18.0,Krasb1.jpg,2.495,64.0,-0.7573844120452475,0.991202256757722
17,Exp1,d11032021,ZGrrY,rating,17.0,48.0,Picb1n.jpg,2.541,66.0,-0.6746560213041967,1.0855276102953322
18,Exp1,d11032021,ZGrrY,rating,18.0,15.0,Clia1n.jpg,3.647,34.0,1.3144222430349908,-0.4236780463064331
19,Exp1,d11032021,ZGrrY,rating,19.0,39.0,Dekb1n.jpg,3.356,36.0,0.7910752494339931,-0.3293526927688228
20,Exp1,d11032021,ZGrrY,rating,20.0,6.0,Wdekc1.jpg,2.736,12.0,-0.3239595822932182,-1.4612569352201468
21,Exp1,d11032021,ZGrrY,rating,21.0,33.0,Kupc1n.jpg,3.237,57.0,0.5770604994734481,0.6610635193760858
22,Exp1,d11032021,ZGrrY,rating,22.0,55.0,Lewic1.jpg,3.122,59.0,0.3702395226208196,0.755388872913696
23,Exp1,d11032021,ZGrrY,rating,23.0,44.0,Lassf1.jpg,2.862,68.0,-0.0973557293938172,1.1798529638329427
24,Exp1,d11032021,ZGrrY,rating,24.0,38.0,Lasc1n.jpg,2.753,7.0,-0.2933860465845689,-1.6970703190641727
25,Exp1,d11032021,ZGrrY,rating,25.0,59.0,Kraa1n.jpg,3.62,38.0,1.2658642745565485,-0.2350273392312124
26,Exp1,d11032021,ZGrrY,rating,26.0,4.0,Mackb1.jpg,2.519,41.0,-0.7142217733977425,-0.0935393089247969
27,Exp1,d11032021,ZGrrY,rating,27.0,2.0,Dekob1.jpg,2.279,36.0,-1.1458481598727923,-0.3293526927688228
28,Exp1,d11032021,ZGrrY,rating,28.0,17.0,Picab1.jpg,2.287,65.0,-1.1314606136569576,1.038364933526527
29,Exp1,d11032021,ZGrrY,rating,29.0,37.0,Mondb1.jpg,3.574,58.0,1.1831358838154966,0.7082261961448909
30,Exp1,d11032021,ZGrrY,rating,30.0,29.0,Clifb1.jpg,2.584,66.0,-0.5973229603940833,1.0855276102953322
31,Exp1,d11032021,ZGrrY,rating,31.0,23.0,Lewib1.jpg,2.964,35.0,0.0860854848580786,-0.376515369537628
32,Exp1,d11032021,ZGrrY,rating,32.0,3.0,Fogeg1.jpg,2.812,65.0,-0.1872778932427864,1.038364933526527
33,Exp1,d11032021,ZGrrY,rating,33.0,11.0,Wdekb1.jpg,2.378,22.0,-0.9678022754518344,-0.9896301675320952
34,Exp1,d11032021,ZGrrY,rating,34.0,14.0,Kupkb1.jpg,3.287,29.0,0.6669826633224164,-0.659491430150459
35,Exp1,d11032021,ZGrrY,rating,35.0,36.0,Gorkf1.jpg,1.824,35.0,-1.964139850898408,-0.376515369537628
36,Exp1,d11032021,ZGrrY,rating,36.0,47.0,Kupkd1.jpg,3.022,31.0,0.190395194922882,-0.5651660766128487
37,Exp1,d11032021,ZGrrY,rating,37.0,40.0,Krab1n.jpg,2.482,38.0,-0.7807641746459791,-0.2350273392312124
38,Exp1,d11032021,ZGrrY,rating,38.0,1.0,Lewia1.jpg,3.246,65.0,0.5932464889662622,1.038364933526527
39,Exp1,d11032021,ZGrrY,rating,39.0,49.0,Hinda1.jpg,2.905,45.0,-0.0200226684837046,0.0951113981504237
40,Exp1,d11032021,ZGrrY,rating,40.0,5.0,Kupb1n.jpg,2.636,62.0,-0.5038039099911558,0.8968769032201116
41,Exp1,d11032021,ZGrrY,rating,41.0,30.0,Lasse1.jpg,2.239,73.0,-1.2177858909519677,1.4156663476769684
42,Exp1,d11032021,ZGrrY,rating,42.0,53.0,Gorka1.jpg,2.479,54.0,-0.7861595044769175,0.5195754890696702
43,Exp1,d11032021,ZGrrY,rating,43.0,7.0,Pica1n.jpg,2.388,73.0,-0.949817842682041,1.4156663476769684
44,Exp1,d11032021,ZGrrY,rating,44.0,42.0,Picc1n.jpg,2.823,67.0,-0.1674950171960131,1.132690287064137
45,Exp1,d11032021,ZGrrY,rating,45.0,57.0,Lewc1n.jpg,2.695,59.0,-0.3976957566493732,0.755388872913696
46,Exp1,d11032021,ZGrrY,rating,46.0,50.0,Gorke1.jpg,3.006,37.0,0.161620102491212,-0.2821900160000176
47,Exp1,d11032021,ZGrrY,rating,47.0,52.0,Picaa1.jpg,4.406,69.0,2.679440690262336,1.2270156406017478
48,Exp1,d11032021,ZGrrY,rating,48.0,34.0,Monb1n.jpg,2.469,35.0,-0.8041439372467116,-0.376515369537628
49,Exp1,d11032021,ZGrrY,rating,49.0,21.0,Lewb1n.jpg,2.846,38.0,-0.1261308218254872,-0.2350273392312124
50,Exp1,d11032021,ZGrrY,rating,50.0,24.0,Dekoa1.jpg,2.765,66.0,-0.2718047272608165,1.0855276102953322
51,Exp1,d11032021,ZGrrY,rating,51.0,27.0,Vinb1n.jpg,2.205,58.0,-1.278932962369266,0.7082261961448909
52,Exp1,d11032021,ZGrrY,rating,52.0,26.0,Clib1n.jpg,2.292,64.0,-1.122468397272061,0.991202256757722
53,Exp1,d11032021,ZGrrY,rating,53.0,22.0,Macb1n.jpg,2.782,59.0,-0.2412311915521673,0.755388872913696
54,Exp1,d11032021,ZGrrY,rating,54.0,19.0,Macc1n.jpg,1.982,68.0,-1.6799858131356666,1.1798529638329427
55,Exp1,d11032021,ZGrrY,rating,55.0,45.0,Klia1n.jpg,3.136,42.0,0.3954177284985313,-0.0463766321559918
56,Exp1,d11032021,ZGrrY,rating,56.0,41.0,Vincb1.jpg,2.657,66.0,-0.466036601174589,1.0855276102953322
57,Exp1,d11032021,ZGrrY,rating,57.0,10.0,Stera1.jpg,2.242,62.0,-1.2123905611210293,0.8968769032201116
58,Exp1,d11032021,ZGrrY,rating,58.0,9.0,Lassc1.jpg,3.072,4.0,0.2803173587718512,-1.838558349370588
59,Exp1,d11032021,ZGrrY,rating,59.0,28.0,Krasa1.jpg,3.219,71.0,0.5446885204878189,1.321340994139358
60,Exp1,d11042021,l6WpQ,rating,0.0,41.0,Vincb1.jpg,8.779,21.0,1.957682820715179,-1.878485849946732
61,Exp1,d11042021,l6WpQ,rating,1.0,42.0,Picc1n.jpg,6.677,78.0,0.9251258515677352,0.1341775607104807
62,Exp1,d11042021,l6WpQ,rating,2.0,46.0,Deka1n.jpg,5.806,85.0,0.4972680398991228,0.3813467514929454
63,Exp1,d11042021,l6WpQ,rating,3.0,14.0,Kupkb1.jpg,4.301,76.0,-0.2420270307797082,0.0635577919154908
64,Exp1,d11042021,l6WpQ,rating,4.0,4.0,Mackb1.jpg,5.821,100.0,0.5046364293078818,0.9109950174553698
65,Exp1,d11042021,l6WpQ,rating,5.0,9.0,Lassc1.jpg,7.661,80.0,1.408492196782333,0.2047973295054706
66,Exp1,d11042021,l6WpQ,rating,6.0,25.0,Clifa1.jpg,5.758,33.0,0.4736891937910936,-1.4547672371767923
67,Exp1,d11042021,l6WpQ,rating,7.0,5.0,Kupb1n.jpg,6.526,20.0,0.8509507315195602,-1.913795734344227
68,Exp1,d11042021,l6WpQ,rating,8.0,2.0,Dekob1.jpg,5.397,29.0,0.2963566220202911,-1.5960067747667723
69,Exp1,d11042021,l6WpQ,rating,9.0,36.0,Gorkf1.jpg,3.967,80.0,-0.4060965016147445,0.2047973295054706
70,Exp1,d11042021,l6WpQ,rating,10.0,15.0,Clia1n.jpg,4.374,15.0,-0.2061675356570807,-2.090345156331702
71,Exp1,d11042021,l6WpQ,rating,11.0,55.0,Lewic1.jpg,4.039,85.0,-0.3707282324527009,0.3813467514929454
72,Exp1,d11042021,l6WpQ,rating,12.0,29.0,Clifb1.jpg,6.405,38.0,0.7915123902889035,-1.2782178151893175
73,Exp1,d11042021,l6WpQ,rating,13.0,28.0,Krasa1.jpg,5.694,89.0,0.4422507323137214,0.5225862890829253
74,Exp1,d11042021,l6WpQ,rating,14.0,57.0,Lewc1n.jpg,5.023,83.0,0.1126381127618969,0.3107269826979555
75,Exp1,d11042021,l6WpQ,rating,15.0,24.0,Dekoa1.jpg,6.998,74.0,1.0828093849151803,-0.007061976879499
76,Exp1,d11042021,l6WpQ,rating,16.0,40.0,Krab1n.jpg,4.43,95.0,-0.17865888186438,0.734445595467895
77,Exp1,d11042021,l6WpQ,rating,17.0,37.0,Mondb1.jpg,3.982,26.0,-0.3987281122059853,-1.7019364279592573
78,Exp1,d11042021,l6WpQ,rating,18.0,20.0,Gorc1n.jpg,4.886,87.0,0.0453401561618972,0.4519665202879354
79,Exp1,d11042021,l6WpQ,rating,19.0,56.0,Luisc1.jpg,12.006,83.0,3.542868995519557,0.3107269826979555
80,Exp1,d11042021,l6WpQ,rating,20.0,1.0,Lewia1.jpg,9.414,94.0,2.2696113056859817,0.6991357110704001
81,Exp1,d11042021,l6WpQ,rating,21.0,38.0,Lasc1n.jpg,5.551,94.0,0.3720054199502179,0.6991357110704001
82,Exp1,d11042021,l6WpQ,rating,22.0,23.0,Lewib1.jpg,7.038,88.0,1.1024584233385382,0.4872764046854303
83,Exp1,d11042021,l6WpQ,rating,23.0,34.0,Monb1n.jpg,8.565,74.0,1.852560465150216,-0.007061976879499
84,Exp1,d11042021,l6WpQ,rating,24.0,32.0,Macka1.jpg,5.27,89.0,0.2339709250261303,0.5225862890829253
85,Exp1,d11042021,l6WpQ,rating,25.0,44.0,Lassf1.jpg,4.605,19.0,-0.09269433876219,-1.949105618741722
86,Exp1,d11042021,l6WpQ,rating,26.0,0.0,Gorkc1.jpg,3.406,95.0,-0.6816742655023353,0.734445595467895
87,Exp1,d11042021,l6WpQ,rating,27.0,58.0,Mackc1.jpg,6.526,100.0,0.8509507315195602,0.9109950174553698
88,Exp1,d11042021,l6WpQ,rating,28.0,3.0,Fogeg1.jpg,7.566,18.0,1.3618257305268588,-1.9844155031392168
89,Exp1,d11042021,l6WpQ,rating,29.0,6.0,Wdekc1.jpg,6.83,84.0,1.0002834235370783,0.3460368670954505
90,Exp1,d11042021,l6WpQ,rating,30.0,45.0,Klia1n.jpg,2.606,70.0,-1.0746550339694882,-0.1483015144694789
91,Exp1,d11042021,l6WpQ,rating,31.0,39.0,Dekb1n.jpg,4.43,84.0,-0.17865888186438,0.3460368670954505
92,Exp1,d11042021,l6WpQ,rating,32.0,49.0,Hinda1.jpg,2.782,100.0,-0.9881992649067144,0.9109950174553698
93,Exp1,d11042021,l6WpQ,rating,33.0,54.0,Kupka1.jpg,3.038,99.0,-0.8624454189972258,0.8756851330578749
94,Exp1,d11042021,l6WpQ,rating,34.0,18.0,Krasb1.jpg,4.03,100.0,-0.3751492660979561,0.9109950174553698
95,Exp1,d11042021,l6WpQ,rating,35.0,35.0,Wdeka1.jpg,2.59,11.0,-1.0825146493388311,-2.2315846939216817
96,Exp1,d11042021,l6WpQ,rating,36.0,53.0,Gorka1.jpg,2.566,67.0,-1.094304072392846,-0.2542311676619638
97,Exp1,d11042021,l6WpQ,rating,37.0,52.0,Picaa1.jpg,4.022,26.0,-0.3790790737826277,-1.7019364279592573
98,Exp1,d11042021,l6WpQ,rating,38.0,7.0,Pica1n.jpg,2.814,82.0,-0.9724800341680284,0.2754170983004605
99,Exp1,d11042021,l6WpQ,rating,39.0,30.0,Lasse1.jpg,2.502,92.0,-1.125742533870218,0.6285159422754102
100,Exp1,d11042021,l6WpQ,rating,40.0,8.0,Klina1.jpg,3.102,95.0,-0.8310069575198535,0.734445595467895
101,Exp1,d11042021,l6WpQ,rating,41.0,48.0,Picb1n.jpg,3.022,100.0,-0.8703050343665688,0.9109950174553698
102,Exp1,d11042021,l6WpQ,rating,42.0,13.0,Picak1.jpg,2.734,97.0,-1.0117781110147437,0.805065364262885
103,Exp1,d11042021,l6WpQ,rating,43.0,26.0,Clib1n.jpg,5.053,73.0,0.1273748915794152,-0.042371861276994
104,Exp1,d11042021,l6WpQ,rating,44.0,47.0,Kupkd1.jpg,6.502,86.0,0.8391613084655456,0.4166566358904404
105,Exp1,d11042021,l6WpQ,rating,45.0,11.0,Wdekb1.jpg,5.502,17.0,0.3479353478816047,-2.019725387536712
106,Exp1,d11042021,l6WpQ,rating,46.0,10.0,Stera1.jpg,4.038,95.0,-0.3712194584132846,0.734445595467895
107,Exp1,d11042021,l6WpQ,rating,47.0,51.0,Gora1n.jpg,2.494,91.0,-1.1296723415548895,0.5932060578779152
108,Exp1,d11042021,l6WpQ,rating,48.0,59.0,Kraa1n.jpg,3.198,100.0,-0.7838492653037952,0.9109950174553698
109,Exp1,d11042021,l6WpQ,rating,49.0,33.0,Kupc1n.jpg,2.542,99.0,-1.1060934954468604,0.8756851330578749
110,Exp1,d11042021,l6WpQ,rating,50.0,17.0,Picab1.jpg,3.335,93.0,-0.7165513087037952,0.6638258266729051
111,Exp1,d11042021,l6WpQ,rating,51.0,16.0,Lewa1n.jpg,3.924,84.0,-0.427219217919854,0.3460368670954505
112,Exp1,d11042021,l6WpQ,rating,52.0,21.0,Lewb1n.jpg,3.446,100.0,-0.6620252270789777,0.9109950174553698
113,Exp1,d11042021,l6WpQ,rating,53.0,27.0,Vinb1n.jpg,2.989,90.0,-0.8865154910658388,0.5578961734804203
114,Exp1,d11042021,l6WpQ,rating,54.0,31.0,Maca1n.jpg,3.526,85.0,-0.6227271502322625,0.3813467514929454
115,Exp1,d11042021,l6WpQ,rating,55.0,43.0,Picac1.jpg,2.302,94.0,-1.2239877259870062,0.6991357110704001
116,Exp1,d11042021,l6WpQ,rating,56.0,19.0,Macc1n.jpg,2.71,94.0,-1.0235675340687582,0.6991357110704001
117,Exp1,d11042021,l6WpQ,rating,57.0,50.0,Gorke1.jpg,6.55,79.0,0.8627401545735748,0.1694874451079757
118,Exp1,d11042021,l6WpQ,rating,58.0,12.0,Kupkc1.jpg,2.59,31.0,-1.0825146493388311,-1.5253870059717825
119,Exp1,d11042021,l6WpQ,rating,59.0,22.0,Macb1n.jpg,3.382,86.0,-0.69346368855635,0.4166566358904404
120,Exp1,d11032021,GCq3m,rating,0.0,37.0,Mondb1.jpg,5.029,40.0,0.840387119323481,2.6622494704904147
121,Exp1,d11032021,GCq3m,rating,1.0,11.0,Wdekb1.jpg,2.695,10.0,-0.8138791676808251,-0.2402635803168211
122,Exp1,d11032021,GCq3m,rating,2.0,19.0,Macc1n.jpg,2.572,32.0,-0.9010577252221832,1.888245990275152
123,Exp1,d11032021,GCq3m,rating,3.0,45.0,Klia1n.jpg,2.915,11.0,-0.657950040371079,-0.1435131452899132
124,Exp1,d11032021,GCq3m,rating,4.0,47.0,Kupkd1.jpg,3.683,12.0,-0.1136156323079655,-0.0467627102630053
125,Exp1,d11032021,GCq3m,rating,5.0,57.0,Lewc1n.jpg,3.422,34.0,-0.298604278798164,2.0817468603289675
126,Exp1,d11032021,GCq3m,rating,6.0,22.0,Macb1n.jpg,2.894,10.0,-0.6728341843415546,-0.2402635803168211
127,Exp1,d11032021,GCq3m,rating,7.0,46.0,Deka1n.jpg,3.657,19.0,-0.1320436200809353,0.6304903349253497
128,Exp1,d11032021,GCq3m,rating,8.0,23.0,Lewib1.jpg,2.817,6.0,-0.7274093788999657,-0.6272653204244526
129,Exp1,d11032021,GCq3m,rating,9.0,43.0,Picac1.jpg,2.899,14.0,-0.6692903405390606,0.1467381597908103
130,Exp1,d11032021,GCq3m,rating,10.0,30.0,Lasse1.jpg,2.683,5.0,-0.8223843928068113,-0.7240157554513604
131,Exp1,d11032021,GCq3m,rating,11.0,55.0,Lewic1.jpg,3.738,50.0,-0.0746333504805289,3.629753820759493
132,Exp1,d11032021,GCq3m,rating,12.0,36.0,Gorkf1.jpg,2.968,7.0,-0.6203852960646402,-0.5305148853975447
133,Exp1,d11032021,GCq3m,rating,13.0,0.0,Gorkc1.jpg,3.93,7.0,0.0614502515352496,-0.5305148853975447
134,Exp1,d11032021,GCq3m,rating,14.0,54.0,Kupka1.jpg,3.96,2.0,0.0827133143502148,-1.014267060532084
135,Exp1,d11032021,GCq3m,rating,15.0,2.0,Dekob1.jpg,10.478,30.0,4.702468095281692,1.694745120221336
136,Exp1,d11032021,GCq3m,rating,16.0,50.0,Gorke1.jpg,5.043,8.0,0.850309881970465,-0.4337644503706368
137,Exp1,d11032021,GCq3m,rating,17.0,5.0,Kupb1n.jpg,4.102,15.0,0.1833584783410512,0.2434885948177182
138,Exp1,d11032021,GCq3m,rating,18.0,13.0,Picak1.jpg,3.951,7.0,0.0763343955057253,-0.5305148853975447
139,Exp1,d11032021,GCq3m,rating,19.0,31.0,Maca1n.jpg,4.588,31.0,0.5278200959434901,1.791495555248244
140,Exp1,d11032021,GCq3m,rating,20.0,56.0,Luisc1.jpg,4.769,14.0,0.6561072415937812,0.1467381597908103
141,Exp1,d11032021,GCq3m,rating,21.0,17.0,Picab1.jpg,3.29,14.0,-0.3921617551840118,0.1467381597908103
142,Exp1,d11032021,GCq3m,rating,22.0,16.0,Lewa1n.jpg,3.657,32.0,-0.1320436200809353,1.888245990275152
143,Exp1,d11032021,GCq3m,rating,23.0,8.0,Klina1.jpg,2.797,9.0,-0.7415847541099427,-0.337014015343729
144,Exp1,d11032021,GCq3m,rating,24.0,7.0,Pica1n.jpg,3.352,19.0,-0.3482180920330834,0.6304903349253497
145,Exp1,d11032021,GCq3m,rating,25.0,9.0,Lassc1.jpg,2.86,0.0,-0.6969323221985156,-1.2077679305858997
146,Exp1,d11032021,GCq3m,rating,26.0,32.0,Macka1.jpg,3.16,12.0,-0.4843016940488616,-0.0467627102630053
147,Exp1,d11032021,GCq3m,rating,27.0,24.0,Dekoa1.jpg,3.232,4.0,-0.4332703432929447,-0.8207661904782683
148,Exp1,d11032021,GCq3m,rating,28.0,20.0,Gorc1n.jpg,2.916,4.0,-0.6572412716105802,-0.8207661904782683
149,Exp1,d11032021,GCq3m,rating,29.0,51.0,Gora1n.jpg,3.015,6.0,-0.5870731643211943,-0.6272653204244526
150,Exp1,d11032021,GCq3m,rating,30.0,27.0,Vinb1n.jpg,2.442,6.0,-0.9931976640870328,-0.6272653204244526
151,Exp1,d11032021,GCq3m,rating,31.0,1.0,Lewia1.jpg,3.727,9.0,-0.0824298068460162,-0.337014015343729
152,Exp1,d11032021,GCq3m,rating,32.0,10.0,Stera1.jpg,3.314,8.0,-0.3751513049320394,-0.4337644503706368
153,Exp1,d11032021,GCq3m,rating,33.0,38.0,Lasc1n.jpg,2.512,5.0,-0.9435838508521138,-0.7240157554513604
154,Exp1,d11032021,GCq3m,rating,34.0,39.0,Dekb1n.jpg,9.223,5.0,3.8129633008556407,-0.7240157554513604
155,Exp1,d11032021,GCq3m,rating,35.0,41.0,Vincb1.jpg,5.084,10.0,0.8793694011509173,-0.2402635803168211
156,Exp1,d11032021,GCq3m,rating,36.0,33.0,Kupc1n.jpg,3.272,8.0,-0.4049195928729912,-0.4337644503706368
157,Exp1,d11032021,GCq3m,rating,37.0,53.0,Gorka1.jpg,3.241,8.0,-0.4268914244484552,-0.4337644503706368
158,Exp1,d11032021,GCq3m,rating,38.0,59.0,Kraa1n.jpg,3.0,12.0,-0.5977046957286771,-0.0467627102630053
159,Exp1,d11032021,GCq3m,rating,39.0,42.0,Picc1n.jpg,3.049,5.0,-0.5629750264642337,-0.7240157554513604
160,Exp1,d11032021,GCq3m,rating,40.0,58.0,Mackc1.jpg,3.475,2.0,-0.2610395344917253,-1.014267060532084
161,Exp1,d11032021,GCq3m,rating,41.0,40.0,Krab1n.jpg,3.617,5.0,-0.1603943705008892,-0.7240157554513604
162,Exp1,d11032021,GCq3m,rating,42.0,29.0,Clifb1.jpg,3.554,14.0,-0.2050468024123166,0.1467381597908103
163,Exp1,d11032021,GCq3m,rating,43.0,49.0,Hinda1.jpg,3.03,32.0,-0.5764416329137119,1.888245990275152
164,Exp1,d11032021,GCq3m,rating,44.0,34.0,Monb1n.jpg,3.233,11.0,-0.432561574532446,-0.1435131452899132
165,Exp1,d11032021,GCq3m,rating,45.0,14.0,Kupkb1.jpg,3.02,13.0,-0.5835293205187002,0.0499877247639024
166,Exp1,d11032021,GCq3m,rating,46.0,44.0,Lassf1.jpg,4.06,11.0,0.1535901904000992,-0.1435131452899132
167,Exp1,d11032021,GCq3m,rating,47.0,52.0,Picaa1.jpg,5.567,26.0,1.2217047124718603,1.3077433801137046
168,Exp1,d11032021,GCq3m,rating,48.0,18.0,Krasb1.jpg,4.062,2.0,0.1550077279210973,-1.014267060532084
169,Exp1,d11032021,GCq3m,rating,49.0,21.0,Lewb1n.jpg,3.184,8.0,-0.4672912437968893,-0.4337644503706368
170,Exp1,d11032021,GCq3m,rating,50.0,3.0,Fogeg1.jpg,3.877,18.0,0.0238855072288105,0.5337398998984418
171,Exp1,d11032021,GCq3m,rating,51.0,35.0,Wdeka1.jpg,3.84,5.0,-0.0023389369096467,-0.7240157554513604
172,Exp1,d11032021,GCq3m,rating,52.0,4.0,Mackb1.jpg,3.8,5.0,-0.0306896873296005,-0.7240157554513604
173,Exp1,d11032021,GCq3m,rating,53.0,26.0,Clib1n.jpg,6.052,12.0,1.5654575613138,-0.0467627102630053
174,Exp1,d11032021,GCq3m,rating,54.0,48.0,Picb1n.jpg,5.751,10.0,1.352118164403648,-0.2402635803168211
175,Exp1,d11032021,GCq3m,rating,55.0,15.0,Clia1n.jpg,5.65,4.0,1.2805325195932646,-0.8207661904782683
176,Exp1,d11032021,GCq3m,rating,56.0,25.0,Clifa1.jpg,3.394,8.0,-0.3184498040921317,-0.4337644503706368
177,Exp1,d11032021,GCq3m,rating,57.0,12.0,Kupkc1.jpg,4.658,10.0,0.5774339091784095,-0.2402635803168211
178,Exp1,d11032021,GCq3m,rating,58.0,6.0,Wdekc1.jpg,3.385,5.0,-0.3248287229366216,-0.7240157554513604
179,Exp1,d11032021,GCq3m,rating,59.0,28.0,Krasa1.jpg,3.453,8.0,-0.2766324472227,-0.4337644503706368
180,Exp1,d11032021,qBGkp,rating,0.0,49.0,Hinda1.jpg,3.241,5.0,-0.0922037218319526,-0.4728738811968869
181,Exp1,d11032021,qBGkp,rating,1.0,48.0,Picb1n.jpg,2.521,30.0,-0.4062867357998105,1.0894847571188186
182,Exp1,d11032021,qBGkp,rating,2.0,34.0,Monb1n.jpg,3.634,18.0,0.0792332566255029,0.33955261072728
183,Exp1,d11032021,qBGkp,rating,3.0,45.0,Klia1n.jpg,2.509,2.0,-0.4115214526992748,-0.6603569177947716
184,Exp1,d11032021,qBGkp,rating,4.0,31.0,Maca1n.jpg,3.419,9.0,-0.0145554211565656,-0.222896499066374
185,Exp1,d11032021,qBGkp,rating,5.0,23.0,Lewib1.jpg,2.806,56.0,-0.2819622094375335,2.714337740967153
186,Exp1,d11032021,qBGkp,rating,6.0,27.0,Vinb1n.jpg,2.388,1.0,-0.4643048481022065,-0.7228512633273998
187,Exp1,d11032021,qBGkp,rating,7.0,3.0,Fogeg1.jpg,3.204,1.0,-0.1083440989386342,-0.7228512633273998
188,Exp1,d11032021,qBGkp,rating,8.0,38.0,Lasc1n.jpg,2.852,0.0,-0.2618957946562537,-0.785345608860028
189,Exp1,d11032021,qBGkp,rating,9.0,24.0,Dekoa1.jpg,3.319,20.0,-0.0581780619854348,0.4645413017925365
190,Exp1,d11032021,qBGkp,rating,10.0,26.0,Clib1n.jpg,2.557,20.0,-0.3905825851014176,0.4645413017925365
191,Exp1,d11032021,qBGkp,rating,11.0,54.0,Kupka1.jpg,12.125,13.0,3.783231689404781,0.0270808830641389
192,Exp1,d11032021,qBGkp,rating,12.0,14.0,Kupkb1.jpg,2.806,26.0,-0.2819622094375335,0.8395073749883059
193,Exp1,d11032021,qBGkp,rating,13.0,42.0,Picc1n.jpg,2.59,36.0,-0.3761871136278908,1.4644508303145882
194,Exp1,d11032021,qBGkp,rating,14.0,40.0,Krab1n.jpg,2.581,5.0,-0.380113151302489,-0.4728738811968869
195,Exp1,d11032021,qBGkp,rating,15.0,2.0,Dekob1.jpg,2.205,0.0,-0.5441342808190369,-0.785345608860028
196,Exp1,d11032021,qBGkp,rating,16.0,35.0,Wdeka1.jpg,3.069,0.0,-0.1672346640576076,-0.785345608860028
197,Exp1,d11032021,qBGkp,rating,17.0,46.0,Deka1n.jpg,2.726,6.0,-0.3168603221006288,-0.4103795356642586
198,Exp1,d11032021,qBGkp,rating,18.0,37.0,Mondb1.jpg,2.292,1.0,-0.5061825832979209,-0.7228512633273998
199,Exp1,d11032021,qBGkp,rating,19.0,25.0,Clifa1.jpg,7.581,34.0,1.801018890140968,1.3394621392493316
200,Exp1,d11032021,qBGkp,rating,20.0,18.0,Krasb1.jpg,2.645,8.0,-0.3521946611720127,-0.2853908445990022
201,Exp1,d11032021,qBGkp,rating,21.0,36.0,Gorkf1.jpg,2.181,10.0,-0.5546037146179655,-0.1604021535337457
202,Exp1,d11032021,qBGkp,rating,22.0,17.0,Picab1.jpg,2.429,20.0,-0.4464195653623702,0.4645413017925365
203,Exp1,d11032021,qBGkp,rating,23.0,39.0,Dekb1n.jpg,2.572,2.0,-0.3840391889770872,-0.6603569177947716
204,Exp1,d11032021,qBGkp,rating,24.0,1.0,Lewia1.jpg,3.365,2.0,-0.0381116472041549,-0.6603569177947716
205,Exp1,d11032021,qBGkp,rating,25.0,11.0,Wdekb1.jpg,1.869,2.0,-0.6907063540040372,-0.6603569177947716
206,Exp1,d11032021,qBGkp,rating,26.0,19.0,Macc1n.jpg,1.982,18.0,-0.6414127698674151,0.33955261072728
207,Exp1,d11032021,qBGkp,rating,27.0,57.0,Lewc1n.jpg,2.59,4.0,-0.3761871136278908,-0.5353682267295151
208,Exp1,d11032021,qBGkp,rating,28.0,9.0,Lassc1.jpg,2.964,0.0,-0.2130384369279202,-0.785345608860028
209,Exp1,d11032021,qBGkp,rating,29.0,28.0,Krasa1.jpg,2.164,1.0,-0.5620195635588733,-0.7228512633273998
210,Exp1,d11032021,qBGkp,rating,30.0,52.0,Picaa1.jpg,3.866,37.0,0.1804377833484794,1.5269451758472163
211,Exp1,d11032021,qBGkp,rating,31.0,0.0,Gorkc1.jpg,1.953,18.0,-0.6540633357077872,0.33955261072728
212,Exp1,d11032021,qBGkp,rating,32.0,22.0,Macb1n.jpg,2.544,12.0,-0.3962535284091706,-0.0354134624684893
213,Exp1,d11032021,qBGkp,rating,33.0,16.0,Lewa1n.jpg,3.274,4.0,-0.0778082503584259,-0.5353682267295151
214,Exp1,d11032021,qBGkp,rating,34.0,32.0,Macka1.jpg,1.953,16.0,-0.6540633357077872,0.2145639196620236
215,Exp1,d11032021,qBGkp,rating,35.0,5.0,Kupb1n.jpg,3.45,15.0,-0.0010324024996161,0.1520695741293953
216,Exp1,d11032021,qBGkp,rating,36.0,44.0,Lassf1.jpg,3.033,6.0,-0.1829388147560005,-0.4103795356642586
217,Exp1,d11032021,qBGkp,rating,37.0,12.0,Kupkc1.jpg,2.157,4.0,-0.5650731484168942,-0.5353682267295151
218,Exp1,d11032021,qBGkp,rating,38.0,7.0,Pica1n.jpg,2.517,6.0,-0.4080316414329653,-0.4103795356642586
219,Exp1,d11032021,qBGkp,rating,39.0,20.0,Gorc1n.jpg,2.661,1.0,-0.3452150386393937,-0.7228512633273998
220,Exp1,d11032021,qBGkp,rating,40.0,56.0,Luisc1.jpg,2.381,0.0,-0.4673584329602274,-0.785345608860028
221,Exp1,d11032021,qBGkp,rating,41.0,8.0,Klina1.jpg,2.989,2.0,-0.202132776720703,-0.6603569177947716
222,Exp1,d11032021,qBGkp,rating,42.0,29.0,Clifb1.jpg,5.301,0.0,0.8064226792427516,-0.785345608860028
223,Exp1,d11032021,qBGkp,rating,43.0,15.0,Clia1n.jpg,5.349,20.0,0.8273615468406087,0.4645413017925365
224,Exp1,d11032021,qBGkp,rating,44.0,50.0,Gorke1.jpg,2.725,0.0,-0.3172965485089174,-0.785345608860028
225,Exp1,d11032021,qBGkp,rating,45.0,55.0,Lewic1.jpg,3.46,0.0,0.0033298615832706,-0.785345608860028
226,Exp1,d11032021,qBGkp,rating,46.0,47.0,Kupkd1.jpg,3.606,0.0,0.0670189171934195,-0.785345608860028
227,Exp1,d11032021,qBGkp,rating,47.0,30.0,Lasse1.jpg,3.14,0.0,-0.1362625890691105,-0.785345608860028
228,Exp1,d11032021,qBGkp,rating,48.0,6.0,Wdekc1.jpg,3.093,32.0,-0.156765230258679,1.214473448184075
229,Exp1,d11032021,qBGkp,rating,49.0,21.0,Lewb1n.jpg,3.253,63.0,-0.0869690049324884,3.1517981596955504
230,Exp1,d11032021,qBGkp,rating,50.0,51.0,Gora1n.jpg,3.678,12.0,0.0984272185902053,-0.0354134624684893
231,Exp1,d11032021,qBGkp,rating,51.0,43.0,Picac1.jpg,2.469,38.0,-0.4289705090308225,1.589439521379845
232,Exp1,d11032021,qBGkp,rating,52.0,4.0,Mackb1.jpg,16.269,3.0,5.5909539253531175,-0.5978625722621433
233,Exp1,d11032021,qBGkp,rating,53.0,10.0,Stera1.jpg,5.509,0.0,0.8971577721667994,-0.785345608860028
234,Exp1,d11032021,qBGkp,rating,54.0,58.0,Mackc1.jpg,5.636,30.0,0.9525585260194632,1.0894847571188186
235,Exp1,d11032021,qBGkp,rating,55.0,13.0,Picak1.jpg,4.429,66.0,0.4260332512150127,3.339281196293435
236,Exp1,d11032021,qBGkp,rating,56.0,33.0,Kupc1n.jpg,2.341,0.0,-0.4848074892917748,-0.785345608860028
237,Exp1,d11032021,qBGkp,rating,57.0,59.0,Kraa1n.jpg,3.005,19.0,-0.1951531541880839,0.4020469562599083
238,Exp1,d11032021,qBGkp,rating,58.0,41.0,Vincb1.jpg,3.67,0.0,0.0949374073238958,-0.785345608860028
239,Exp1,d11032021,qBGkp,rating,59.0,53.0,Gorka1.jpg,2.245,0.0,-0.5266852244874893,-0.785345608860028
240,Exp1,d11032021,BcmPt,rating,0.0,53.0,Gorka1.jpg,4.272,72.0,0.3145248076858586,0.9542684647488018
241,Exp1,d11032021,BcmPt,rating,1.0,33.0,Kupc1n.jpg,4.319,31.0,0.3510944439386053,-0.817429967916898
242,Exp1,d11032021,BcmPt,rating,2.0,58.0,Mackc1.jpg,3.9,75.0,0.0250800271322024,1.083904935431658
243,Exp1,d11032021,BcmPt,rating,3.0,46.0,Deka1n.jpg,3.354,58.0,-0.3997502152933247,0.3492982682288068
244,Exp1,d11032021,BcmPt,rating,4.0,30.0,Lasse1.jpg,2.668,34.0,-0.9335112891100128,-0.6877934972340419
245,Exp1,d11032021,BcmPt,rating,5.0,14.0,Kupkb1.jpg,3.331,58.0,-0.4176459947361584,0.3492982682288068
246,Exp1,d11032021,BcmPt,rating,6.0,36.0,Gorkf1.jpg,3.307,60.0,-0.4363198515460716,0.4357225820173775
247,Exp1,d11032021,BcmPt,rating,7.0,26.0,Clib1n.jpg,3.576,87.0,-0.2270170398016268,1.6024508181630823
248,Exp1,d11032021,BcmPt,rating,8.0,3.0,Fogeg1.jpg,3.257,76.0,-0.4752237199000575,1.1271170923259433
249,Exp1,d11032021,BcmPt,rating,9.0,40.0,Krab1n.jpg,4.161,61.0,0.2281582199400092,0.4789347389116629
250,Exp1,d11032021,BcmPt,rating,10.0,41.0,Vincb1.jpg,4.818,78.0,0.7393550501113855,1.213541406114514
251,Exp1,d11032021,BcmPt,rating,11.0,48.0,Picb1n.jpg,3.063,27.0,-0.6261707291135232,-0.9902785954940394
252,Exp1,d11032021,BcmPt,rating,12.0,39.0,Dekb1n.jpg,4.115,11.0,0.1923666610543425,-1.681673105802605
253,Exp1,d11032021,BcmPt,rating,13.0,31.0,Maca1n.jpg,4.027,32.0,0.1238958527513271,-0.7742178110226127
254,Exp1,d11032021,BcmPt,rating,14.0,4.0,Mackb1.jpg,2.392,63.0,-1.1482606424240158,0.5653590527002336
255,Exp1,d11032021,BcmPt,rating,15.0,13.0,Picak1.jpg,2.784,59.0,-0.8432543145287655,0.3925104251230921
256,Exp1,d11032021,BcmPt,rating,16.0,49.0,Hinda1.jpg,3.148,37.0,-0.5600341529117471,-0.5581570265511858
257,Exp1,d11032021,BcmPt,rating,17.0,8.0,Klina1.jpg,2.858,60.0,-0.785676589364866,0.4357225820173775
258,Exp1,d11032021,BcmPt,rating,18.0,37.0,Mondb1.jpg,2.65,50.0,-0.947516681717448,0.0036010130745238
259,Exp1,d11032021,BcmPt,rating,19.0,5.0,Kupb1n.jpg,2.452,62.0,-1.1015760003992323,0.5221468958059482
260,Exp1,d11032021,BcmPt,rating,20.0,44.0,Lassf1.jpg,4.027,43.0,0.1238958527513271,-0.2988840851854736
261,Exp1,d11032021,BcmPt,rating,21.0,0.0,Gorkc1.jpg,4.102,2.0,0.1822516552823063,-2.0705825178511734
262,Exp1,d11032021,BcmPt,rating,22.0,34.0,Monb1n.jpg,3.699,28.0,-0.1313135236508213,-0.947066438599754
263,Exp1,d11032021,BcmPt,rating,23.0,32.0,Macka1.jpg,2.869,20.0,-0.7771177383269889,-1.292763693754037
264,Exp1,d11032021,BcmPt,rating,24.0,16.0,Lewa1n.jpg,6.528,50.0,2.0698673478177074,0.0036010130745238
265,Exp1,d11032021,BcmPt,rating,25.0,6.0,Wdekc1.jpg,4.125,11.0,0.2001474347251396,-1.681673105802605
266,Exp1,d11032021,BcmPt,rating,26.0,20.0,Gorc1n.jpg,3.11,0.0,-0.5896010928607767,-2.157006831639744
267,Exp1,d11032021,BcmPt,rating,27.0,15.0,Clia1n.jpg,7.848,33.0,3.0969294723629384,-0.7310056541283273
268,Exp1,d11032021,BcmPt,rating,28.0,12.0,Kupkc1.jpg,4.76,34.0,0.6942265628207619,-0.6877934972340419
269,Exp1,d11032021,BcmPt,rating,29.0,2.0,Dekob1.jpg,2.453,44.0,-1.100797923032153,-0.2556719282911883
270,Exp1,d11032021,BcmPt,rating,30.0,56.0,Luisc1.jpg,2.7,45.0,-0.9086128133634616,-0.2124597713969029
271,Exp1,d11032021,BcmPt,rating,31.0,22.0,Macb1n.jpg,2.916,40.0,-0.7405481020742424,-0.4285205558683297
272,Exp1,d11032021,BcmPt,rating,32.0,29.0,Clifb1.jpg,3.941,56.0,0.0569811991824709,0.262873954440236
273,Exp1,d11032021,BcmPt,rating,33.0,28.0,Krasa1.jpg,3.087,39.0,-0.6074968723036099,-0.4717327127626151
274,Exp1,d11032021,BcmPt,rating,34.0,19.0,Macc1n.jpg,3.05,58.0,-0.6362857348855598,0.3492982682288068
275,Exp1,d11032021,BcmPt,rating,35.0,50.0,Gorke1.jpg,3.652,56.0,-0.167883159903568,0.262873954440236
276,Exp1,d11032021,BcmPt,rating,36.0,17.0,Picab1.jpg,3.636,50.0,-0.1803323977768435,0.0036010130745238
277,Exp1,d11032021,BcmPt,rating,37.0,1.0,Lewia1.jpg,4.221,74.0,0.2748428619647928,1.0406927785373723
278,Exp1,d11032021,BcmPt,rating,38.0,55.0,Lewic1.jpg,5.1,76.0,0.9587728676278666,1.1271170923259433
279,Exp1,d11032021,BcmPt,rating,39.0,35.0,Wdeka1.jpg,2.829,61.0,-0.8082408330101778,0.4789347389116629
280,Exp1,d11032021,BcmPt,rating,40.0,51.0,Gora1n.jpg,3.343,27.0,-0.4083090663312017,-0.9902785954940394
281,Exp1,d11032021,BcmPt,rating,41.0,47.0,Kupkd1.jpg,5.858,59.0,1.5485555118742946,0.3925104251230921
282,Exp1,d11032021,BcmPt,rating,42.0,25.0,Clifa1.jpg,4.467,97.0,0.4662498942664037,2.034572387105936
283,Exp1,d11032021,BcmPt,rating,43.0,21.0,Lewb1n.jpg,4.697,86.0,0.6452076886947397,1.559238661268797
284,Exp1,d11032021,BcmPt,rating,44.0,10.0,Stera1.jpg,3.309,23.0,-0.434763696811912,-1.1631272230711809
285,Exp1,d11032021,BcmPt,rating,45.0,54.0,Kupka1.jpg,3.175,20.0,-0.5390260640005948,-1.292763693754037
286,Exp1,d11032021,BcmPt,rating,46.0,27.0,Vinb1n.jpg,2.755,66.0,-0.8658185581740774,0.6949955233830897
287,Exp1,d11032021,BcmPt,rating,47.0,45.0,Klia1n.jpg,3.075,50.0,-0.6168338007085666,0.0036010130745238
288,Exp1,d11032021,BcmPt,rating,48.0,24.0,Dekoa1.jpg,5.773,60.0,1.4824189356725186,0.4357225820173775
289,Exp1,d11032021,BcmPt,rating,49.0,57.0,Lewc1n.jpg,7.382,68.0,2.7343454193037884,0.7814198371716604
290,Exp1,d11032021,BcmPt,rating,50.0,18.0,Krasb1.jpg,3.928,24.0,0.0468661934104346,-1.1199150661768955
291,Exp1,d11032021,BcmPt,rating,51.0,38.0,Lasc1n.jpg,2.213,31.0,-1.2875364911312857,-0.817429967916898
292,Exp1,d11032021,BcmPt,rating,52.0,23.0,Lewib1.jpg,2.892,69.0,-0.7592219588841557,0.8246319940659458
293,Exp1,d11032021,BcmPt,rating,53.0,59.0,Kraa1n.jpg,7.65,50.0,2.942870153681154,0.0036010130745238
294,Exp1,d11032021,BcmPt,rating,54.0,43.0,Picac1.jpg,4.502,88.0,0.493482602114194,1.6456629750573677
295,Exp1,d11032021,BcmPt,rating,55.0,9.0,Lassc1.jpg,3.163,30.0,-0.5483629924055515,-0.8606421248111833
296,Exp1,d11032021,BcmPt,rating,56.0,42.0,Picc1n.jpg,3.88,38.0,0.009518479790608,-0.5149448696569005
297,Exp1,d11032021,BcmPt,rating,57.0,11.0,Wdekb1.jpg,2.978,24.0,-0.6923073053152995,-1.1199150661768955
298,Exp1,d11032021,BcmPt,rating,58.0,7.0,Pica1n.jpg,3.48,74.0,-0.30171246704128,1.0406927785373723
299,Exp1,d11032021,BcmPt,rating,59.0,52.0,Picaa1.jpg,6.441,100.0,2.002174616881772,2.164208857788792
300,Exp1,d11032021,8gPGn,rating,0.0,3.0,Fogeg1.jpg,4.068,74.0,0.716760409534979,0.8585009530444964
301,Exp1,d11032021,8gPGn,rating,1.0,36.0,Gorkf1.jpg,2.752,89.0,-0.7602707238231111,1.357629414116878
302,Exp1,d11032021,8gPGn,rating,2.0,57.0,Lewc1n.jpg,3.186,40.0,-0.2731647117582088,-0.2728568920529021
303,Exp1,d11032021,8gPGn,rating,3.0,58.0,Mackc1.jpg,2.883,76.0,-0.6132410289371611,0.925051414520814
304,Exp1,d11032021,8gPGn,rating,4.0,20.0,Gorc1n.jpg,2.719,22.0,-0.7973087385653731,-0.8718110453397601
305,Exp1,d11032021,8gPGn,rating,5.0,11.0,Wdekb1.jpg,3.707,26.0,0.3115869755362934,-0.738710122387125
306,Exp1,d11032021,8gPGn,rating,6.0,21.0,Lewb1n.jpg,3.925,21.0,0.5562623456518433,-0.9050862760779188
307,Exp1,d11032021,8gPGn,rating,7.0,7.0,Pica1n.jpg,2.236,100.0,-1.3394105907021183,1.7236569522366243
308,Exp1,d11032021,8gPGn,rating,8.0,51.0,Gora1n.jpg,3.731,38.0,0.3385237135306658,-0.3394073535292196
309,Exp1,d11032021,8gPGn,rating,9.0,53.0,Gorka1.jpg,3.762,67.0,0.3733170001067304,0.6255743378773849
310,Exp1,d11032021,8gPGn,rating,10.0,39.0,Dekb1n.jpg,2.745,74.0,-0.7681272724048027,0.8585009530444964
311,Exp1,d11032021,8gPGn,rating,11.0,16.0,Lewa1n.jpg,3.051,63.0,-0.4246838629765537,0.4924734149247498
312,Exp1,d11032021,8gPGn,rating,12.0,32.0,Macka1.jpg,2.512,100.0,-1.0296381037668354,1.7236569522366243
313,Exp1,d11032021,8gPGn,rating,13.0,28.0,Krasa1.jpg,4.083,63.0,0.7335958707814624,0.4924734149247498
314,Exp1,d11032021,8gPGn,rating,14.0,19.0,Macc1n.jpg,3.651,39.0,0.2487345868827575,-0.3061321227910608
315,Exp1,d11032021,8gPGn,rating,15.0,43.0,Picac1.jpg,3.371,68.0,-0.0655273563849209,0.6588495686155437
316,Exp1,d11032021,8gPGn,rating,16.0,18.0,Krasb1.jpg,2.782,100.0,-0.7265998013301452,1.7236569522366243
317,Exp1,d11032021,8gPGn,rating,17.0,10.0,Stera1.jpg,3.388,37.0,-0.0464471669722406,-0.3726825842673784
318,Exp1,d11032021,8gPGn,rating,18.0,4.0,Mackb1.jpg,2.703,14.0,-0.8152665638949548,-1.1380128912450302
319,Exp1,d11032021,8gPGn,rating,19.0,33.0,Kupc1n.jpg,2.859,35.0,-0.6401777669315336,-0.439233045743696
320,Exp1,d11032021,8gPGn,rating,20.0,1.0,Lewia1.jpg,3.69,43.0,0.2925067861236129,-0.1730311998384257
321,Exp1,d11032021,8gPGn,rating,21.0,45.0,Klia1n.jpg,2.997,73.0,-0.485291523463892,0.8252257223063376
322,Exp1,d11032021,8gPGn,rating,22.0,23.0,Lewib1.jpg,2.37,0.0,-1.1890138035668725,-1.6038661215792531
323,Exp1,d11032021,8gPGn,rating,23.0,30.0,Lasse1.jpg,2.234,0.0,-1.341655318868317,-1.6038661215792531
324,Exp1,d11032021,8gPGn,rating,24.0,37.0,Mondb1.jpg,2.733,75.0,-0.7815956414019889,0.8917761837826551
325,Exp1,d11032021,8gPGn,rating,25.0,6.0,Wdekc1.jpg,3.371,36.0,-0.0655273563849209,-0.4059578150055372
326,Exp1,d11032021,8gPGn,rating,26.0,9.0,Lassc1.jpg,5.139,74.0,1.918812342533851,0.8585009530444964
327,Exp1,d11032021,8gPGn,rating,27.0,40.0,Krab1n.jpg,2.874,68.0,-0.6233423056850507,0.6588495686155437
328,Exp1,d11032021,8gPGn,rating,28.0,0.0,Gorkc1.jpg,2.842,17.0,-0.659257956344214,-1.038187199030554
329,Exp1,d11032021,8gPGn,rating,29.0,48.0,Picb1n.jpg,2.341,80.0,-1.221562361976739,1.058152337473449
330,Exp1,d11032021,8gPGn,rating,30.0,15.0,Clia1n.jpg,4.847,68.0,1.591082030268986,0.6588495686155437
331,Exp1,d11032021,8gPGn,rating,31.0,14.0,Kupkb1.jpg,3.036,65.0,-0.4415193242230366,0.5590238764010674
332,Exp1,d11032021,8gPGn,rating,32.0,26.0,Clib1n.jpg,2.494,26.0,-1.0498406572626149,-0.738710122387125
333,Exp1,d11032021,8gPGn,rating,33.0,46.0,Deka1n.jpg,2.89,0.0,-0.605384480355469,-1.6038661215792531
334,Exp1,d11032021,8gPGn,rating,34.0,29.0,Clifb1.jpg,3.286,36.0,-0.1609283034483234,-0.4059578150055372
335,Exp1,d11032021,8gPGn,rating,35.0,25.0,Clifa1.jpg,3.393,21.0,-0.0408353465567464,-0.9050862760779188
336,Exp1,d11032021,8gPGn,rating,36.0,13.0,Picak1.jpg,2.791,100.0,-0.7164985245822557,1.7236569522366243
337,Exp1,d11032021,8gPGn,rating,37.0,31.0,Maca1n.jpg,3.662,74.0,0.261080591796845,0.8585009530444964
338,Exp1,d11032021,8gPGn,rating,38.0,50.0,Gorke1.jpg,3.098,0.0,-0.3719327510709079,-1.6038661215792531
339,Exp1,d11032021,8gPGn,rating,39.0,54.0,Kupka1.jpg,3.053,71.0,-0.4224391348103562,0.75867526083002
340,Exp1,d11032021,8gPGn,rating,40.0,41.0,Vincb1.jpg,4.015,29.0,0.6572751131307398,-0.6388844301726486
341,Exp1,d11032021,8gPGn,rating,41.0,2.0,Dekob1.jpg,4.216,68.0,0.8828702938336098,0.6588495686155437
342,Exp1,d11032021,8gPGn,rating,42.0,8.0,Klina1.jpg,2.673,38.0,-0.8489374863879202,-0.3394073535292196
343,Exp1,d11032021,8gPGn,rating,43.0,55.0,Lewic1.jpg,5.857,73.0,2.7246697541988274,0.8252257223063376
344,Exp1,d11032021,8gPGn,rating,44.0,27.0,Vinb1n.jpg,3.739,72.0,0.3475026261954567,0.7919504915681789
345,Exp1,d11032021,8gPGn,rating,45.0,24.0,Dekoa1.jpg,5.663,70.0,2.50693112207765,0.7254000300918613
346,Exp1,d11032021,8gPGn,rating,46.0,42.0,Picc1n.jpg,5.582,68.0,2.4160196313466424,0.6588495686155437
347,Exp1,d11032021,8gPGn,rating,47.0,12.0,Kupkc1.jpg,2.77,35.0,-0.7400681703273315,-0.439233045743696
348,Exp1,d11032021,8gPGn,rating,48.0,44.0,Lassf1.jpg,3.189,0.0,-0.2697976195089121,-1.6038661215792531
349,Exp1,d11032021,8gPGn,rating,49.0,34.0,Monb1n.jpg,4.244,19.0,0.9142964881603772,-0.9716367375542364
350,Exp1,d11032021,8gPGn,rating,50.0,52.0,Picaa1.jpg,3.666,71.0,0.2655700481292405,0.75867526083002
351,Exp1,d11032021,8gPGn,rating,51.0,47.0,Kupkd1.jpg,5.002,27.0,1.7650484631493075,-0.7054348916489662
352,Exp1,d11032021,8gPGn,rating,52.0,5.0,Kupb1n.jpg,3.59,71.0,0.1802703778137276,0.75867526083002
353,Exp1,d11032021,8gPGn,rating,53.0,17.0,Picab1.jpg,2.32,0.0,-1.245132007721815,-1.6038661215792531
354,Exp1,d11032021,8gPGn,rating,54.0,59.0,Kraa1n.jpg,5.57,84.0,2.4025512623494567,1.191253260426084
355,Exp1,d11032021,8gPGn,rating,55.0,38.0,Lasc1n.jpg,3.812,31.0,0.4294352042616729,-0.5723339686963311
356,Exp1,d11032021,8gPGn,rating,56.0,49.0,Hinda1.jpg,2.863,0.0,-0.6356883105991382,-1.6038661215792531
357,Exp1,d11032021,8gPGn,rating,57.0,56.0,Luisc1.jpg,2.647,0.0,-0.8781189525484906,-1.6038661215792531
358,Exp1,d11032021,8gPGn,rating,58.0,22.0,Macb1n.jpg,3.378,34.0,-0.0576708078032288,-0.4725082764818547
359,Exp1,d11032021,8gPGn,rating,59.0,35.0,Wdeka1.jpg,3.712,29.0,0.317198795951788,-0.6388844301726486
360,Exp1,d11042021,339Ys,rating,0.0,13.0,Picak1.jpg,3.749,83.0,-0.4556091959775334,0.838417861378349
361,Exp1,d11042021,339Ys,rating,1.0,15.0,Clia1n.jpg,4.676,66.0,0.2468630410982089,0.2968179762574396
362,Exp1,d11042021,339Ys,rating,2.0,46.0,Deka1n.jpg,3.436,37.0,-0.6927977722501414,-0.6270877101252881
363,Exp1,d11042021,339Ys,rating,3.0,41.0,Vincb1.jpg,4.434,97.0,0.0634776242995793,1.2844412961838036
364,Exp1,d11042021,339Ys,rating,4.0,57.0,Lewc1n.jpg,4.683,24.0,0.2521675779477558,-1.0412523281589243
365,Exp1,d11042021,339Ys,rating,5.0,43.0,Picac1.jpg,4.36,63.0,0.0074010918900811,0.201241525941985
366,Exp1,d11042021,339Ys,rating,6.0,26.0,Clib1n.jpg,3.417,100.0,-0.7071958008417694,1.3800177464992582
367,Exp1,d11042021,339Ys,rating,7.0,44.0,Lassf1.jpg,2.966,72.0,-1.048959532148306,0.4879708768883488
368,Exp1,d11042021,339Ys,rating,8.0,49.0,Hinda1.jpg,3.015,92.0,-1.0118277742014763,1.1251472123247128
369,Exp1,d11042021,339Ys,rating,9.0,24.0,Dekoa1.jpg,3.125,6.0,-0.9284707665657356,-1.6147110300516525
370,Exp1,d11042021,339Ys,rating,10.0,30.0,Lasse1.jpg,2.984,14.0,-1.035319294535185,-1.3598404958771066
371,Exp1,d11042021,339Ys,rating,11.0,35.0,Wdeka1.jpg,3.927,59.0,-0.3207224018033349,0.0738062588547122
372,Exp1,d11042021,339Ys,rating,12.0,6.0,Wdekc1.jpg,4.122,8.0,-0.1729531609945219,-1.5509933965080158
373,Exp1,d11042021,339Ys,rating,13.0,42.0,Picc1n.jpg,6.716,36.0,1.792756637251946,-0.6589465268971063
374,Exp1,d11042021,339Ys,rating,14.0,36.0,Gorkf1.jpg,3.139,18.0,-0.9178616928666414,-1.2324052287898335
375,Exp1,d11042021,339Ys,rating,15.0,48.0,Picb1n.jpg,3.101,76.0,-0.9466577500498972,0.6154061439756217
376,Exp1,d11042021,339Ys,rating,16.0,56.0,Luisc1.jpg,4.264,62.0,-0.0653468420465654,0.1693827091701668
377,Exp1,d11042021,339Ys,rating,17.0,39.0,Dekb1n.jpg,3.611,84.0,-0.5601843510114627,0.8702766781501672
378,Exp1,d11042021,339Ys,rating,18.0,31.0,Maca1n.jpg,3.743,94.0,-0.460155941848574,1.188864845868349
379,Exp1,d11042021,339Ys,rating,19.0,33.0,Kupc1n.jpg,5.012,40.0,0.501480809876471,-0.5315112598098335
380,Exp1,d11042021,339Ys,rating,20.0,14.0,Kupkb1.jpg,2.846,100.0,-1.1398944495691143,1.3800177464992582
381,Exp1,d11042021,339Ys,rating,21.0,52.0,Picaa1.jpg,3.828,79.0,-0.3957437086755017,0.7109825942910762
382,Exp1,d11042021,339Ys,rating,22.0,3.0,Fogeg1.jpg,3.828,95.0,-0.3957437086755017,1.2207236626401674
383,Exp1,d11042021,339Ys,rating,23.0,58.0,Mackc1.jpg,4.47,58.0,0.0907580995258214,0.041947442082894
384,Exp1,d11042021,339Ys,rating,24.0,19.0,Macc1n.jpg,3.338,93.0,-0.7670612881438011,1.157006029096531
385,Exp1,d11042021,339Ys,rating,25.0,20.0,Gorc1n.jpg,3.341,3.0,-0.7647879152082809,-1.7102874803671069
386,Exp1,d11042021,339Ys,rating,26.0,12.0,Kupkc1.jpg,3.677,22.0,-0.5101701464300183,-1.104969961702561
387,Exp1,d11042021,339Ys,rating,27.0,25.0,Clifa1.jpg,3.565,62.0,-0.5950427360227727,0.1693827091701668
388,Exp1,d11042021,339Ys,rating,28.0,29.0,Clifb1.jpg,5.458,21.0,0.8394555862904749,-1.1368287784743791
389,Exp1,d11042021,339Ys,rating,29.0,45.0,Klia1n.jpg,4.975,61.0,0.473442543671722,0.1375238923983486
390,Exp1,d11042021,339Ys,rating,30.0,2.0,Dekob1.jpg,4.858,17.0,0.3847809991864341,-1.264264045561652
391,Exp1,d11042021,339Ys,rating,31.0,10.0,Stera1.jpg,10.41,39.0,4.592036511855821,-0.5633700765816517
392,Exp1,d11042021,339Ys,rating,32.0,7.0,Pica1n.jpg,4.864,81.0,0.3893277450574747,0.7747002278347126
393,Exp1,d11042021,339Ys,rating,33.0,59.0,Kraa1n.jpg,5.489,68.0,0.8629471066241834,0.360535609801076
394,Exp1,d11042021,339Ys,rating,34.0,27.0,Vinb1n.jpg,3.854,90.0,-0.3760411432343264,1.0614295787810764
395,Exp1,d11042021,339Ys,rating,35.0,0.0,Gorkc1.jpg,6.437,31.0,1.5813329542485677,-0.8182406107561973
396,Exp1,d11042021,339Ys,rating,36.0,37.0,Mondb1.jpg,3.462,61.0,-0.6730952068089661,0.1375238923983486
397,Exp1,d11042021,339Ys,rating,37.0,5.0,Kupb1n.jpg,3.587,94.0,-0.5783713344956244,1.188864845868349
398,Exp1,d11042021,339Ys,rating,38.0,55.0,Lewic1.jpg,4.086,78.0,-0.200233636220764,0.679123777519258
399,Exp1,d11042021,339Ys,rating,39.0,1.0,Lewia1.jpg,5.449,87.0,0.832635467483914,0.9658531284656218
400,Exp1,d11042021,339Ys,rating,40.0,38.0,Lasc1n.jpg,4.604,7.0,0.192302090645724,-1.582852213279834
401,Exp1,d11042021,339Ys,rating,41.0,9.0,Lassc1.jpg,4.865,33.0,0.3900855360359817,-0.7545229772125609
402,Exp1,d11042021,339Ys,rating,42.0,54.0,Kupka1.jpg,3.847,67.0,-0.3813456800838736,0.3286767930292578
403,Exp1,d11042021,339Ys,rating,43.0,34.0,Monb1n.jpg,6.775,70.0,1.837466304983844,0.4242532433447124
404,Exp1,d11042021,339Ys,rating,44.0,16.0,Lewa1n.jpg,4.593,63.0,0.1839663898821498,0.201241525941985
405,Exp1,d11042021,339Ys,rating,45.0,17.0,Picab1.jpg,3.622,37.0,-0.5518486502478889,-0.6270877101252881
406,Exp1,d11042021,339Ys,rating,46.0,11.0,Wdekb1.jpg,4.138,13.0,-0.1608285053384141,-1.3916993126489248
407,Exp1,d11042021,339Ys,rating,47.0,40.0,Krab1n.jpg,4.734,13.0,0.2908149178515993,-1.3916993126489248
408,Exp1,d11042021,339Ys,rating,48.0,47.0,Kupkd1.jpg,4.538,78.0,0.1422878860642797,0.679123777519258
409,Exp1,d11042021,339Ys,rating,49.0,32.0,Macka1.jpg,7.317,32.0,2.248189015334493,-0.786381793984379
410,Exp1,d11042021,339Ys,rating,50.0,8.0,Klina1.jpg,2.775,65.0,-1.1936976090430924,0.2649591594856214
411,Exp1,d11042021,339Ys,rating,51.0,28.0,Krasa1.jpg,5.013,3.0,0.5022386008549781,-1.7102874803671069
412,Exp1,d11042021,339Ys,rating,52.0,21.0,Lewb1n.jpg,6.902,100.0,1.9337057592541984,1.3800177464992582
413,Exp1,d11042021,339Ys,rating,53.0,22.0,Macb1n.jpg,5.099,83.0,0.5674086250065574,0.838417861378349
414,Exp1,d11042021,339Ys,rating,54.0,53.0,Gorka1.jpg,3.14,90.0,-0.9171039018881344,1.0614295787810764
415,Exp1,d11042021,339Ys,rating,55.0,50.0,Gorke1.jpg,3.775,13.0,-0.4359066305363586,-1.3916993126489248
416,Exp1,d11042021,339Ys,rating,56.0,4.0,Mackb1.jpg,4.317,72.0,-0.0251839201857085,0.4879708768883488
417,Exp1,d11042021,339Ys,rating,57.0,18.0,Krasb1.jpg,3.459,13.0,-0.6753685797444864,-1.3916993126489248
418,Exp1,d11042021,339Ys,rating,58.0,23.0,Lewib1.jpg,3.731,100.0,-0.4692494335906549,1.3800177464992582
419,Exp1,d11042021,339Ys,rating,59.0,51.0,Gora1n.jpg,3.468,78.0,-0.6685484609379259,0.679123777519258
420,Exp1,d11032021,JY6WO,rating,0.0,22.0,Macb1n.jpg,4.534,27.0,0.464488977338568,-0.274117761784538
421,Exp1,d11032021,JY6WO,rating,1.0,37.0,Mondb1.jpg,3.518,73.0,-0.0149348058442278,2.004692547026682
422,Exp1,d11032021,JY6WO,rating,2.0,59.0,Kraa1n.jpg,3.562,50.0,0.0058276414589641,0.8652873926210721
423,Exp1,d11032021,JY6WO,rating,3.0,6.0,Wdekc1.jpg,4.16,21.0,0.2880081752614366,-0.5713538890207841
424,Exp1,d11032021,JY6WO,rating,4.0,26.0,Clib1n.jpg,3.572,25.0,0.0105463794824169,-0.3731964708632866
425,Exp1,d11032021,JY6WO,rating,5.0,10.0,Stera1.jpg,3.236,19.0,-0.1480032181055942,-0.6704325980995328
426,Exp1,d11032021,JY6WO,rating,6.0,4.0,Mackb1.jpg,3.382,72.0,-0.0791096429631846,1.955153192487308
427,Exp1,d11032021,JY6WO,rating,7.0,2.0,Dekob1.jpg,2.483,28.0,-0.5033241912715837,-0.2245784072451636
428,Exp1,d11032021,JY6WO,rating,8.0,16.0,Lewa1n.jpg,3.114,29.0,-0.2055718219917174,-0.1750390527057893
429,Exp1,d11032021,JY6WO,rating,9.0,1.0,Lewia1.jpg,2.832,33.0,-0.338640234253084,0.0231183654517081
430,Exp1,d11032021,JY6WO,rating,10.0,0.0,Gorkc1.jpg,3.327,25.0,-0.1050627020921746,-0.3731964708632866
431,Exp1,d11032021,JY6WO,rating,11.0,3.0,Fogeg1.jpg,3.001,75.0,-0.2588935616567331,2.1037712561054307
432,Exp1,d11032021,JY6WO,rating,12.0,46.0,Deka1n.jpg,2.595,21.0,-0.4504743254089132,-0.5713538890207841
433,Exp1,d11032021,JY6WO,rating,13.0,52.0,Picaa1.jpg,4.655,37.0,0.5215857074223461,0.2212757836092055
434,Exp1,d11032021,JY6WO,rating,14.0,36.0,Gorkf1.jpg,3.001,26.0,-0.2588935616567331,-0.3236571163239123
435,Exp1,d11032021,JY6WO,rating,15.0,40.0,Krab1n.jpg,2.967,61.0,-0.2749372709364723,1.41022029255419
436,Exp1,d11032021,JY6WO,rating,16.0,17.0,Picab1.jpg,2.563,73.0,-0.4655742870839619,2.004692547026682
437,Exp1,d11032021,JY6WO,rating,17.0,29.0,Clifb1.jpg,2.933,16.0,-0.2909809802162116,-0.8190506617176558
438,Exp1,d11032021,JY6WO,rating,18.0,45.0,Klia1n.jpg,2.563,21.0,-0.4655742870839619,-0.5713538890207841
439,Exp1,d11032021,JY6WO,rating,19.0,11.0,Wdekb1.jpg,4.372,15.0,0.388045421358634,-0.8685900162570303
440,Exp1,d11032021,JY6WO,rating,20.0,31.0,Maca1n.jpg,4.374,26.0,0.3889891689633245,-0.3236571163239123
441,Exp1,d11032021,JY6WO,rating,21.0,33.0,Kupc1n.jpg,2.416,13.0,-0.5349397360287169,-0.9676687253357787
442,Exp1,d11032021,JY6WO,rating,22.0,44.0,Lassf1.jpg,3.0,18.0,-0.2593654354590783,-0.7199719526389071
443,Exp1,d11032021,JY6WO,rating,23.0,48.0,Picb1n.jpg,5.769,78.0,1.0472531232349784,2.252389319723554
444,Exp1,d11032021,JY6WO,rating,24.0,19.0,Macc1n.jpg,2.695,25.0,-0.4032869451743862,-0.3731964708632866
445,Exp1,d11032021,JY6WO,rating,25.0,51.0,Gora1n.jpg,2.765,18.0,-0.3702557790102171,-0.7199719526389071
446,Exp1,d11032021,JY6WO,rating,26.0,25.0,Clifa1.jpg,3.732,21.0,0.0860461878576604,-0.5713538890207841
447,Exp1,d11032021,JY6WO,rating,27.0,9.0,Lassc1.jpg,2.473,16.0,-0.5080429292950365,-0.8190506617176558
448,Exp1,d11032021,JY6WO,rating,28.0,23.0,Lewib1.jpg,2.854,62.0,-0.328259010601488,1.4597596470935643
449,Exp1,d11032021,JY6WO,rating,29.0,53.0,Gorka1.jpg,2.136,30.0,-0.6670644006853929,-0.1254996981664149
450,Exp1,d11032021,JY6WO,rating,30.0,13.0,Picak1.jpg,2.9,26.0,-0.3065528156936055,-0.3236571163239123
451,Exp1,d11032021,JY6WO,rating,31.0,30.0,Lasse1.jpg,2.932,24.0,-0.2914528540185568,-0.422735825402661
452,Exp1,d11032021,JY6WO,rating,32.0,54.0,Kupka1.jpg,2.799,18.0,-0.354212069730478,-0.7199719526389071
453,Exp1,d11032021,JY6WO,rating,33.0,38.0,Lasc1n.jpg,2.63,0.0,-0.4339587423268288,-1.6116803343476456
454,Exp1,d11032021,JY6WO,rating,34.0,7.0,Pica1n.jpg,0.268,50.0,-1.5485246634663603,0.8652873926210721
455,Exp1,d11032021,JY6WO,rating,35.0,41.0,Vincb1.jpg,5.61,57.0,0.9722251886620804,1.2120628743966926
456,Exp1,d11032021,JY6WO,rating,36.0,8.0,Klina1.jpg,3.226,13.0,-0.152721956129047,-0.9676687253357787
457,Exp1,d11032021,JY6WO,rating,37.0,27.0,Vinb1n.jpg,3.507,24.0,-0.0201254176700256,-0.422735825402661
458,Exp1,d11032021,JY6WO,rating,38.0,56.0,Luisc1.jpg,3.102,65.0,-0.2112343076198607,1.6083777107116874
459,Exp1,d11032021,JY6WO,rating,39.0,42.0,Picc1n.jpg,3.27,29.0,-0.131959508825855,-0.1750390527057893
460,Exp1,d11032021,JY6WO,rating,40.0,24.0,Dekoa1.jpg,10.1,31.0,3.090938561192349,-0.0759603436270405
461,Exp1,d11032021,JY6WO,rating,41.0,20.0,Gorc1n.jpg,2.55,14.0,-0.4717086465144506,-0.9181293707964046
462,Exp1,d11032021,JY6WO,rating,42.0,15.0,Clia1n.jpg,3.586,10.0,0.0171526127152506,-1.116286788953902
463,Exp1,d11032021,JY6WO,rating,43.0,57.0,Lewc1n.jpg,2.832,11.0,-0.338640234253084,-1.0667474344145276
464,Exp1,d11032021,JY6WO,rating,44.0,12.0,Kupkc1.jpg,3.709,23.0,0.0751930904037191,-0.4722751799420354
465,Exp1,d11032021,JY6WO,rating,45.0,49.0,Hinda1.jpg,3.777,13.0,0.1072805089631976,-0.9676687253357787
466,Exp1,d11032021,JY6WO,rating,46.0,35.0,Wdeka1.jpg,7.839,32.0,2.02403189408969,-0.0264209890876662
467,Exp1,d11032021,JY6WO,rating,47.0,39.0,Dekb1n.jpg,15.939,31.0,5.84620969308639,-0.0759603436270405
468,Exp1,d11032021,JY6WO,rating,48.0,55.0,Lewic1.jpg,3.069,26.0,-0.2268061430972546,-0.3236571163239123
469,Exp1,d11032021,JY6WO,rating,49.0,47.0,Kupkd1.jpg,3.405,62.0,-0.0682565455092435,1.4597596470935643
470,Exp1,d11032021,JY6WO,rating,50.0,34.0,Monb1n.jpg,2.63,25.0,-0.4339587423268288,-0.3731964708632866
471,Exp1,d11032021,JY6WO,rating,51.0,18.0,Krasb1.jpg,2.473,15.0,-0.5080429292950365,-0.8685900162570303
472,Exp1,d11032021,JY6WO,rating,52.0,43.0,Picac1.jpg,2.439,68.0,-0.5240866385747757,1.7569957743298104
473,Exp1,d11032021,JY6WO,rating,53.0,28.0,Krasa1.jpg,2.753,26.0,-0.3759182646383603,-0.3236571163239123
474,Exp1,d11032021,JY6WO,rating,54.0,21.0,Lewb1n.jpg,4.036,75.0,0.2294958237706227,2.1037712561054307
475,Exp1,d11032021,JY6WO,rating,55.0,58.0,Mackc1.jpg,2.798,35.0,-0.3546839435328232,0.1221970745304568
476,Exp1,d11032021,JY6WO,rating,56.0,14.0,Kupkb1.jpg,2.078,31.0,-0.6944330812214188,-0.0759603436270405
477,Exp1,d11032021,JY6WO,rating,57.0,5.0,Kupb1n.jpg,2.687,32.0,-0.4070619355931484,-0.0264209890876662
478,Exp1,d11032021,JY6WO,rating,58.0,50.0,Gorke1.jpg,2.483,9.0,-0.5033241912715837,-1.1658261434932764
479,Exp1,d11032021,JY6WO,rating,59.0,32.0,Macka1.jpg,2.968,23.0,-0.274465397134127,-0.4722751799420354
540,Exp1,d11032021,UiTO9,rating,0.0,16.0,Lewa1n.jpg,10.031,68.0,1.4765864858939617,0.2945123670764488
541,Exp1,d11032021,UiTO9,rating,1.0,19.0,Macc1n.jpg,2.812,75.0,-0.4244023100283741,0.6116795316203167
542,Exp1,d11032021,UiTO9,rating,2.0,29.0,Clifb1.jpg,12.06,40.0,2.010885733286456,-0.974156291099023
543,Exp1,d11032021,UiTO9,rating,3.0,18.0,Krasb1.jpg,2.45,69.0,-0.5197282477100315,0.3398219620112871
544,Exp1,d11032021,UiTO9,rating,4.0,47.0,Kupkd1.jpg,6.52,65.0,0.5520302229097086,0.1585835822719339
545,Exp1,d11032021,UiTO9,rating,5.0,53.0,Gorka1.jpg,3.776,64.0,-0.1705509179700375,0.1132739873370957
546,Exp1,d11032021,UiTO9,rating,6.0,54.0,Kupka1.jpg,4.13,47.0,-0.0773316308448807,-0.6569891265551551
547,Exp1,d11032021,UiTO9,rating,7.0,45.0,Klia1n.jpg,2.243,62.0,-0.5742378308594877,0.0226547974674191
548,Exp1,d11032021,UiTO9,rating,8.0,31.0,Maca1n.jpg,4.543,71.0,0.0314242041344688,0.4304411518809636
549,Exp1,d11032021,UiTO9,rating,9.0,26.0,Clib1n.jpg,5.067,71.0,0.1694098155852658,0.4304411518809636
550,Exp1,d11032021,UiTO9,rating,10.0,49.0,Hinda1.jpg,4.963,63.0,0.1420233583507565,0.0679643924022574
551,Exp1,d11032021,UiTO9,rating,11.0,44.0,Lassf1.jpg,12.682,92.0,2.174677814054387,1.3819426455125676
552,Exp1,d11032021,UiTO9,rating,12.0,50.0,Gorke1.jpg,4.516,91.0,0.0243142585062788,1.3366330505777293
553,Exp1,d11032021,UiTO9,rating,13.0,5.0,Kupb1n.jpg,3.03,82.0,-0.3669960823637295,0.9288466961641848
554,Exp1,d11032021,UiTO9,rating,14.0,12.0,Kupkc1.jpg,4.121,61.0,-0.0797016127209439,-0.0226547974674191
555,Exp1,d11032021,UiTO9,rating,15.0,17.0,Picab1.jpg,2.497,64.0,-0.5073516756905898,0.1132739873370957
556,Exp1,d11032021,UiTO9,rating,16.0,9.0,Lassc1.jpg,3.345,57.0,-0.2840467167015136,-0.2038931772067722
557,Exp1,d11032021,UiTO9,rating,17.0,13.0,Picak1.jpg,2.825,62.0,-0.4209790028740603,0.0226547974674191
558,Exp1,d11032021,UiTO9,rating,18.0,11.0,Wdekb1.jpg,3.327,44.0,-0.2887866804536403,-0.7929179113596699
559,Exp1,d11032021,UiTO9,rating,19.0,23.0,Lewib1.jpg,7.98,95.0,0.93649394947109,1.5178714303170824
560,Exp1,d11032021,UiTO9,rating,20.0,34.0,Monb1n.jpg,4.735,57.0,0.0819838174904861,-0.2038931772067722
561,Exp1,d11032021,UiTO9,rating,21.0,42.0,Picc1n.jpg,2.469,63.0,-0.5147249526383423,0.0679643924022574
562,Exp1,d11032021,UiTO9,rating,22.0,55.0,Lewic1.jpg,3.299,76.0,-0.2961599574013928,0.6569891265551551
563,Exp1,d11032021,UiTO9,rating,23.0,22.0,Macb1n.jpg,3.046,79.0,-0.362782781250728,0.7929179113596699
564,Exp1,d11032021,UiTO9,rating,24.0,57.0,Lewc1n.jpg,4.426,71.0,0.0006144397456458,0.4304411518809636
565,Exp1,d11032021,UiTO9,rating,25.0,10.0,Stera1.jpg,2.828,63.0,-0.4201890089153726,0.0679643924022574
566,Exp1,d11032021,UiTO9,rating,26.0,59.0,Kraa1n.jpg,2.707,68.0,-0.452052098582446,0.2945123670764488
567,Exp1,d11032021,UiTO9,rating,27.0,30.0,Lasse1.jpg,2.762,74.0,-0.4375688760065035,0.5663699366854785
568,Exp1,d11032021,UiTO9,rating,28.0,52.0,Picaa1.jpg,4.823,100.0,0.105156973611994,1.7444194049912738
569,Exp1,d11032021,UiTO9,rating,29.0,33.0,Kupc1n.jpg,4.118,53.0,-0.0804916066796317,-0.3851315569461254
570,Exp1,d11032021,UiTO9,rating,30.0,58.0,Mackc1.jpg,5.368,60.0,0.2486725427736054,-0.0679643924022574
571,Exp1,d11032021,UiTO9,rating,31.0,46.0,Deka1n.jpg,3.032,54.0,-0.3664694197246043,-0.3398219620112871
572,Exp1,d11032021,UiTO9,rating,32.0,32.0,Macka1.jpg,3.422,99.0,-0.2637702050951942,1.6991098100564357
573,Exp1,d11032021,UiTO9,rating,33.0,1.0,Lewia1.jpg,16.646,9.0,3.2185231648004926,-2.3787537340790097
574,Exp1,d11032021,UiTO9,rating,34.0,36.0,Gorkf1.jpg,3.813,7.0,-0.1608076591462216,-2.4693729239486863
575,Exp1,d11032021,UiTO9,rating,35.0,21.0,Lewb1n.jpg,2.977,0.0,-0.3809526423005467,-2.786540088492554
576,Exp1,d11032021,UiTO9,rating,36.0,35.0,Wdeka1.jpg,2.078,0.0,-0.617687498587315,-2.786540088492554
577,Exp1,d11032021,UiTO9,rating,37.0,39.0,Dekb1n.jpg,2.752,0.0,-0.4402021892021294,-2.786540088492554
578,Exp1,d11032021,UiTO9,rating,38.0,25.0,Clifa1.jpg,2.098,55.0,-0.6124208721960631,-0.2945123670764488
579,Exp1,d11032021,UiTO9,rating,39.0,48.0,Picb1n.jpg,1.61,66.0,-0.7409265561426068,0.2038931772067722
580,Exp1,d11032021,UiTO9,rating,40.0,37.0,Mondb1.jpg,1.502,68.0,-0.7693663386553666,0.2945123670764488
581,Exp1,d11032021,UiTO9,rating,41.0,6.0,Wdekc1.jpg,1.455,71.0,-0.7817429106748083,0.4304411518809636
582,Exp1,d11032021,UiTO9,rating,42.0,20.0,Gorc1n.jpg,1.729,80.0,-0.7095901291146587,0.8382275062945082
583,Exp1,d11032021,UiTO9,rating,43.0,28.0,Krasa1.jpg,2.626,69.0,-0.4733819354670157,0.3398219620112871
584,Exp1,d11032021,UiTO9,rating,44.0,38.0,Lasc1n.jpg,1.312,59.0,-0.8193992893722586,-0.1132739873370957
585,Exp1,d11032021,UiTO9,rating,45.0,2.0,Dekob1.jpg,3.119,78.0,-0.3435595949226589,0.7476083164248316
586,Exp1,d11032021,UiTO9,rating,46.0,14.0,Kupkb1.jpg,12.251,63.0,2.0611820153229106,0.0679643924022574
587,Exp1,d11032021,UiTO9,rating,47.0,27.0,Vinb1n.jpg,1.794,76.0,-0.6924735933430903,0.6569891265551551
588,Exp1,d11032021,UiTO9,rating,48.0,56.0,Luisc1.jpg,1.761,80.0,-0.7011635268886558,0.8382275062945082
589,Exp1,d11032021,UiTO9,rating,49.0,24.0,Dekoa1.jpg,2.293,70.0,-0.5610712648813581,0.3851315569461254
590,Exp1,d11032021,UiTO9,rating,50.0,41.0,Vincb1.jpg,1.794,64.0,-0.6924735933430903,0.1132739873370957
591,Exp1,d11032021,UiTO9,rating,51.0,40.0,Krab1n.jpg,1.837,34.0,-0.6811503466018991,-1.2460138607080526
592,Exp1,d11032021,UiTO9,rating,52.0,4.0,Mackb1.jpg,17.344,60.0,3.40232842585518,-0.0679643924022574
593,Exp1,d11032021,UiTO9,rating,53.0,15.0,Clia1n.jpg,11.48,60.0,1.858153567940154,-0.0679643924022574
594,Exp1,d11032021,UiTO9,rating,54.0,3.0,Fogeg1.jpg,1.826,76.0,-0.6840469911170874,0.6569891265551551
595,Exp1,d11032021,UiTO9,rating,55.0,51.0,Gora1n.jpg,1.622,50.0,-0.7377665803078558,-0.5210603417506402
596,Exp1,d11032021,UiTO9,rating,56.0,7.0,Pica1n.jpg,1.961,50.0,-0.6484972629761379,-0.5210603417506402
597,Exp1,d11032021,UiTO9,rating,57.0,0.0,Gorkc1.jpg,0.619,50.0,-1.0018878938291331,-0.5210603417506402
598,Exp1,d11032021,UiTO9,rating,58.0,8.0,Klina1.jpg,12.843,63.0,2.217074156503964,0.0679643924022574
599,Exp1,d11032021,UiTO9,rating,59.0,43.0,Picac1.jpg,2.325,72.0,-0.5526446626553552,0.4757507468158019
600,Exp1,d11032021,MJ2Dl,rating,0.0,3.0,Fogeg1.jpg,6.577,67.0,0.0503523902463678,0.1549692608789444
601,Exp1,d11032021,MJ2Dl,rating,1.0,2.0,Dekob1.jpg,5.53,51.0,-0.2332353052240318,-0.3919810716349773
602,Exp1,d11032021,MJ2Dl,rating,2.0,15.0,Clia1n.jpg,6.773,33.0,0.103440440210263,-1.0073001957131391
603,Exp1,d11032021,MJ2Dl,rating,3.0,6.0,Wdekc1.jpg,6.407,81.0,0.0043066326246219,0.633550801828626
604,Exp1,d11032021,MJ2Dl,rating,4.0,37.0,Mondb1.jpg,7.622,89.0,0.3333983709212175,0.9070259680855868
605,Exp1,d11032021,MJ2Dl,rating,5.0,45.0,Klia1n.jpg,4.982,65.0,-0.3816651592047185,0.0866004693147042
606,Exp1,d11032021,MJ2Dl,rating,6.0,33.0,Kupc1n.jpg,6.729,100.0,0.0915227147081641,1.283054321688908
607,Exp1,d11032021,MJ2Dl,rating,7.0,34.0,Monb1n.jpg,4.819,69.0,-0.4258149150420397,0.2233380524431846
608,Exp1,d11032021,MJ2Dl,rating,8.0,17.0,Picab1.jpg,5.034,40.0,-0.3675805745204199,-0.7680094252382986
609,Exp1,d11032021,MJ2Dl,rating,9.0,35.0,Wdeka1.jpg,7.816,95.0,0.3859447060895628,1.1121323427783076
610,Exp1,d11032021,MJ2Dl,rating,10.0,22.0,Macb1n.jpg,9.793,55.0,0.92142978149069,-0.2552434885064969
611,Exp1,d11032021,MJ2Dl,rating,11.0,57.0,Lewc1n.jpg,5.064,100.0,-0.3594548525871706,1.283054321688908
612,Exp1,d11032021,MJ2Dl,rating,12.0,59.0,Kraa1n.jpg,6.128,0.0,-0.0712625813545962,-2.135385256523103
613,Exp1,d11032021,MJ2Dl,rating,13.0,47.0,Kupkd1.jpg,8.803,77.0,0.6532809576934643,0.4968132187001455
614,Exp1,d11032021,MJ2Dl,rating,14.0,53.0,Gorka1.jpg,4.827,34.0,-0.4236480558598399,-0.9731157999310192
615,Exp1,d11032021,MJ2Dl,rating,15.0,42.0,Picc1n.jpg,4.843,85.0,-0.4193143374954403,0.7702883849571065
616,Exp1,d11032021,MJ2Dl,rating,16.0,49.0,Hinda1.jpg,4.979,69.0,-0.3824777313980435,0.2233380524431846
617,Exp1,d11032021,MJ2Dl,rating,17.0,9.0,Lassc1.jpg,3.412,100.0,-0.8069112737114307,1.283054321688908
618,Exp1,d11032021,MJ2Dl,rating,18.0,39.0,Dekb1n.jpg,4.67,18.0,-0.4661726673105111,-1.5200661324449412
619,Exp1,d11032021,MJ2Dl,rating,19.0,12.0,Kupkc1.jpg,5.475,38.0,-0.2481324621016556,-0.8363782168025388
620,Exp1,d11032021,MJ2Dl,rating,20.0,8.0,Klina1.jpg,3.565,43.0,-0.7654700918518594,-0.6654562378919382
621,Exp1,d11032021,MJ2Dl,rating,21.0,4.0,Mackb1.jpg,3.452,75.0,-0.7960769778004316,0.4284444271359053
622,Exp1,d11032021,MJ2Dl,rating,22.0,56.0,Luisc1.jpg,3.265,100.0,-0.8467273111843521,1.283054321688908
623,Exp1,d11032021,MJ2Dl,rating,23.0,54.0,Kupka1.jpg,3.581,69.0,-0.7611363734874598,0.2233380524431846
624,Exp1,d11032021,MJ2Dl,rating,24.0,48.0,Picb1n.jpg,7.652,75.0,0.3415240928544669,0.4284444271359053
625,Exp1,d11032021,MJ2Dl,rating,25.0,50.0,Gorke1.jpg,7.975,99.0,0.4290110323357839,1.248869925906788
626,Exp1,d11032021,MJ2Dl,rating,26.0,52.0,Picaa1.jpg,7.887,71.0,0.405175581331586,0.2917068440074249
627,Exp1,d11032021,MJ2Dl,rating,27.0,16.0,Lewa1n.jpg,6.431,73.0,0.0108072101712213,0.3600756355716651
628,Exp1,d11032021,MJ2Dl,rating,28.0,11.0,Wdekb1.jpg,3.246,29.0,-0.8518736017420767,-1.1440377788416198
629,Exp1,d11032021,MJ2Dl,rating,29.0,58.0,Mackc1.jpg,5.694,93.0,-0.1888146919889358,1.0437635512140673
630,Exp1,d11032021,MJ2Dl,rating,30.0,7.0,Pica1n.jpg,3.633,66.0,-0.747051788803161,0.1207848650968243
631,Exp1,d11032021,MJ2Dl,rating,31.0,40.0,Krab1n.jpg,7.222,54.0,0.2250554118112273,-0.289427884288617
632,Exp1,d11032021,MJ2Dl,rating,32.0,51.0,Gora1n.jpg,3.336,27.0,-0.8274964359423289,-1.21240657040586
633,Exp1,d11032021,MJ2Dl,rating,33.0,13.0,Picak1.jpg,3.694,36.0,-0.7305294875388875,-0.904747008366779
634,Exp1,d11032021,MJ2Dl,rating,34.0,43.0,Picac1.jpg,5.801,100.0,-0.1598329504270133,1.283054321688908
635,Exp1,d11032021,MJ2Dl,rating,35.0,27.0,Vinb1n.jpg,6.545,0.0,0.0416849535175685,-2.135385256523103
636,Exp1,d11032021,MJ2Dl,rating,36.0,30.0,Lasse1.jpg,5.696,60.0,-0.1882729771933859,-0.0843215095958963
637,Exp1,d11032021,MJ2Dl,rating,37.0,10.0,Stera1.jpg,6.159,3.0,-0.0628660020235721,-2.0328320691767425
638,Exp1,d11032021,MJ2Dl,rating,38.0,46.0,Deka1n.jpg,5.127,1.0,-0.3423908365273472,-2.101200860740983
639,Exp1,d11032021,MJ2Dl,rating,39.0,31.0,Maca1n.jpg,4.919,36.0,-0.3987291752645422,-0.904747008366779
640,Exp1,d11032021,MJ2Dl,rating,40.0,28.0,Krasa1.jpg,8.83,100.0,0.6605941074333884,1.283054321688908
641,Exp1,d11032021,MJ2Dl,rating,41.0,36.0,Gorkf1.jpg,3.988,55.0,-0.6508974125930446,-0.2552434885064969
642,Exp1,d11032021,MJ2Dl,rating,42.0,21.0,Lewb1n.jpg,14.821,82.0,2.2833007775032685,0.6677351976107462
643,Exp1,d11032021,MJ2Dl,rating,43.0,0.0,Gorkc1.jpg,4.732,1.0,-0.4493795086484625,-2.101200860740983
644,Exp1,d11032021,MJ2Dl,rating,44.0,5.0,Kupb1n.jpg,5.264,100.0,-0.3052833730321754,1.283054321688908
645,Exp1,d11032021,MJ2Dl,rating,45.0,32.0,Macka1.jpg,3.261,63.0,-0.847810740775452,0.0182316777504639
646,Exp1,d11032021,MJ2Dl,rating,46.0,14.0,Kupkb1.jpg,5.358,56.0,-0.2798227776413278,-0.2210590927243768
647,Exp1,d11032021,MJ2Dl,rating,47.0,24.0,Dekoa1.jpg,6.283,80.0,-0.0292796846994749,0.5993664060465059
648,Exp1,d11032021,MJ2Dl,rating,48.0,19.0,Macc1n.jpg,28.078,78.0,5.874057299806123,0.5309976144822657
649,Exp1,d11032021,MJ2Dl,rating,49.0,18.0,Krasb1.jpg,4.532,56.0,-0.5035509882034578,-0.2210590927243768
650,Exp1,d11032021,MJ2Dl,rating,50.0,38.0,Lasc1n.jpg,12.403,76.0,1.6283675896833771,0.4626288229180254
651,Exp1,d11032021,MJ2Dl,rating,51.0,44.0,Lassf1.jpg,10.878,85.0,1.215310058076539,0.7702883849571065
652,Exp1,d11032021,MJ2Dl,rating,52.0,1.0,Lewia1.jpg,4.921,100.0,-0.398187460468992,1.283054321688908
653,Exp1,d11032021,MJ2Dl,rating,53.0,20.0,Gorc1n.jpg,4.728,55.0,-0.4504629382395625,-0.2552434885064969
654,Exp1,d11032021,MJ2Dl,rating,54.0,29.0,Clifb1.jpg,4.574,100.0,-0.4921749774969088,1.283054321688908
655,Exp1,d11032021,MJ2Dl,rating,55.0,41.0,Vincb1.jpg,4.778,70.0,-0.4369200683508138,0.2575224482253048
656,Exp1,d11032021,MJ2Dl,rating,56.0,26.0,Clib1n.jpg,4.687,82.0,-0.4615680915483364,0.6677351976107462
657,Exp1,d11032021,MJ2Dl,rating,57.0,55.0,Lewic1.jpg,10.506,50.0,1.114551106104248,-0.4261654674170975
658,Exp1,d11032021,MJ2Dl,rating,58.0,23.0,Lewib1.jpg,10.228,23.0,1.0392527495228046,-1.3491441535343405
659,Exp1,d11032021,MJ2Dl,rating,59.0,25.0,Clifa1.jpg,5.453,60.0,-0.2540913248527049,-0.0843215095958963
660,Exp1,d11032021,52UGI,rating,0.0,50.0,Gorke1.jpg,3.44,42.0,2.553664284862027,-0.5143107668354088
661,Exp1,d11032021,52UGI,rating,1.0,49.0,Hinda1.jpg,2.518,54.0,0.2996401562190926,0.1589687824763992
662,Exp1,d11032021,52UGI,rating,2.0,59.0,Kraa1n.jpg,2.359,65.0,-0.0890689939481808,0.7761417026788898
663,Exp1,d11032021,52UGI,rating,3.0,46.0,Deka1n.jpg,2.798,76.0,0.9841594143752987,1.3933146228813804
664,Exp1,d11032021,52UGI,rating,4.0,1.0,Lewia1.jpg,3.027,36.0,1.5439983790816243,-0.8509505414913127
665,Exp1,d11032021,52UGI,rating,5.0,5.0,Kupb1n.jpg,4.015,61.0,3.95937347571852,0.5517151862416205
666,Exp1,d11032021,52UGI,rating,6.0,0.0,Gorkc1.jpg,2.685,72.0,0.7079069994765445,1.1688881064441112
667,Exp1,d11032021,52UGI,rating,7.0,2.0,Dekob1.jpg,2.388,74.0,-0.0181723564962882,1.2811013646627458
668,Exp1,d11032021,52UGI,rating,8.0,11.0,Wdekb1.jpg,1.954,29.0,-1.0791772066384069,-1.243696945256534
669,Exp1,d11032021,52UGI,rating,9.0,41.0,Vincb1.jpg,2.227,65.0,-0.4117709299361065,0.7761417026788898
670,Exp1,d11032021,52UGI,rating,10.0,12.0,Kupkc1.jpg,2.33,79.0,-0.1599656314000733,1.5616345102093323
671,Exp1,d11032021,52UGI,rating,11.0,53.0,Gorka1.jpg,2.798,59.0,0.9841594143752987,0.4395019280229859
672,Exp1,d11032021,52UGI,rating,12.0,39.0,Dekb1n.jpg,2.345,41.0,-0.1232949568559905,-0.5704173959447261
673,Exp1,d11032021,52UGI,rating,13.0,36.0,Gorkf1.jpg,2.01,41.0,-0.942273355007166,-0.5704173959447261
674,Exp1,d11032021,52UGI,rating,14.0,16.0,Lewa1n.jpg,2.618,20.0,0.5441113198463091,-1.74865660724039
675,Exp1,d11032021,52UGI,rating,15.0,10.0,Stera1.jpg,2.12,64.0,-0.6733550750172274,0.7200350735695725
676,Exp1,d11032021,52UGI,rating,16.0,18.0,Krasb1.jpg,2.806,67.0,1.003717107465476,0.8883549608975245
677,Exp1,d11032021,52UGI,rating,17.0,22.0,Macb1n.jpg,2.231,65.0,-0.4019920833910179,0.7761417026788898
678,Exp1,d11032021,52UGI,rating,18.0,33.0,Kupc1n.jpg,2.039,65.0,-0.8713767175552725,0.7761417026788898
679,Exp1,d11032021,52UGI,rating,19.0,9.0,Lassc1.jpg,2.026,34.0,-0.9031579688268114,-0.9631637997099474
680,Exp1,d11032021,52UGI,rating,20.0,37.0,Mondb1.jpg,2.621,77.0,0.5514454547551259,1.4494212519906975
681,Exp1,d11032021,52UGI,rating,21.0,20.0,Gorc1n.jpg,2.034,23.0,-0.8836002757366341,-1.580336719912438
682,Exp1,d11032021,52UGI,rating,22.0,34.0,Monb1n.jpg,2.094,33.0,-0.7369175775603042,-1.0192704288192649
683,Exp1,d11032021,52UGI,rating,23.0,15.0,Clia1n.jpg,2.333,31.0,-0.1526314964912565,-1.1314836870378993
684,Exp1,d11032021,52UGI,rating,24.0,52.0,Picaa1.jpg,2.313,52.0,-0.2015257292166998,0.0467555242577645
685,Exp1,d11032021,52UGI,rating,25.0,54.0,Kupka1.jpg,1.789,22.0,-1.4825546266233136,-1.6364433490217554
686,Exp1,d11032021,52UGI,rating,26.0,21.0,Lewb1n.jpg,2.704,61.0,0.7543565205657158,0.5517151862416205
687,Exp1,d11032021,52UGI,rating,27.0,58.0,Mackc1.jpg,2.264,71.0,-0.3213165993940367,1.112781477334794
688,Exp1,d11032021,52UGI,rating,28.0,47.0,Kupkd1.jpg,2.531,66.0,0.3314214074906316,0.8322483317882072
689,Exp1,d11032021,52UGI,rating,29.0,43.0,Picac1.jpg,2.231,74.0,-0.4019920833910179,1.2811013646627458
690,Exp1,d11032021,52UGI,rating,30.0,4.0,Mackb1.jpg,1.918,37.0,-1.1671868255442046,-0.7948439123819954
691,Exp1,d11032021,52UGI,rating,31.0,23.0,Lewib1.jpg,1.913,60.0,-1.1794103837255652,0.4956085571323032
692,Exp1,d11032021,52UGI,rating,32.0,45.0,Klia1n.jpg,2.191,32.0,-0.4997805488419045,-1.075377057928582
693,Exp1,d11032021,52UGI,rating,33.0,26.0,Clib1n.jpg,2.095,59.0,-0.7344728659240313,0.4395019280229859
694,Exp1,d11032021,52UGI,rating,34.0,38.0,Lasc1n.jpg,2.247,13.0,-0.3628766972106632,-2.1414030110056115
695,Exp1,d11032021,52UGI,rating,35.0,57.0,Lewc1n.jpg,2.062,35.0,-0.8151483499210135,-0.90705717060063
696,Exp1,d11032021,52UGI,rating,36.0,8.0,Klina1.jpg,1.946,38.0,-1.0987348997285842,-0.7387372832726781
697,Exp1,d11032021,52UGI,rating,37.0,13.0,Picak1.jpg,2.131,33.0,-0.6464632470182344,-1.0192704288192649
698,Exp1,d11032021,52UGI,rating,38.0,3.0,Fogeg1.jpg,2.704,35.0,0.7543565205657158,-0.90705717060063
699,Exp1,d11032021,52UGI,rating,39.0,51.0,Gora1n.jpg,2.848,37.0,1.1063949961889066,-0.7948439123819954
700,Exp1,d11032021,52UGI,rating,40.0,27.0,Vinb1n.jpg,2.444,58.0,0.1187314951349529,0.3833952989136685
701,Exp1,d11032021,52UGI,rating,41.0,44.0,Lassf1.jpg,2.36,62.0,-0.0866242823119089,0.6078218153509378
702,Exp1,d11032021,52UGI,rating,42.0,7.0,Pica1n.jpg,2.099,59.0,-0.7246940193789426,0.4395019280229859
703,Exp1,d11032021,52UGI,rating,43.0,6.0,Wdekc1.jpg,2.289,40.0,-0.2601988084872318,-0.6265240250540434
704,Exp1,d11032021,52UGI,rating,44.0,56.0,Luisc1.jpg,2.221,38.0,-0.426439199753739,-0.7387372832726781
705,Exp1,d11032021,52UGI,rating,45.0,40.0,Krab1n.jpg,1.997,62.0,-0.9740546062787034,0.6078218153509378
706,Exp1,d11032021,52UGI,rating,46.0,31.0,Maca1n.jpg,2.708,72.0,0.7641353671108044,1.1688881064441112
707,Exp1,d11032021,52UGI,rating,47.0,55.0,Lewic1.jpg,2.633,44.0,0.5807819943903918,-0.402097508616774
708,Exp1,d11032021,52UGI,rating,48.0,32.0,Macka1.jpg,2.106,68.0,-0.7075810379250382,0.9444615900068418
709,Exp1,d11032021,52UGI,rating,49.0,35.0,Wdeka1.jpg,3.556,28.0,2.837250834669598,-1.2998035743658514
710,Exp1,d11032021,52UGI,rating,50.0,17.0,Picab1.jpg,2.304,59.0,-0.2235281339431501,0.4395019280229859
711,Exp1,d11032021,52UGI,rating,51.0,29.0,Clifb1.jpg,2.436,23.0,0.0991738020447756,-1.580336719912438
712,Exp1,d11032021,52UGI,rating,52.0,42.0,Picc1n.jpg,2.618,37.0,0.5441113198463091,-0.7948439123819954
713,Exp1,d11032021,52UGI,rating,53.0,24.0,Dekoa1.jpg,2.325,60.0,-0.1721891895814338,0.4956085571323032
714,Exp1,d11032021,52UGI,rating,54.0,30.0,Lasse1.jpg,2.651,66.0,0.6247868038432902,0.8322483317882072
715,Exp1,d11032021,52UGI,rating,55.0,19.0,Macc1n.jpg,2.019,69.0,-0.9202709502807158,1.0005682191161591
716,Exp1,d11032021,52UGI,rating,56.0,48.0,Picb1n.jpg,2.057,86.0,-0.827371908102374,1.9543809139745536
717,Exp1,d11032021,52UGI,rating,57.0,28.0,Krasa1.jpg,2.394,41.0,-0.0035040866786547,-0.5704173959447261
718,Exp1,d11032021,52UGI,rating,58.0,14.0,Kupkb1.jpg,2.374,59.0,-0.052398319404098,0.4395019280229859
719,Exp1,d11032021,52UGI,rating,59.0,25.0,Clifa1.jpg,2.432,41.0,0.0893949554996869,-0.5704173959447261
780,Exp1,d11032021,LBPHd,rating,0.0,9.0,Lassc1.jpg,4.781,26.0,2.6689675663119643,-2.451610846279498
781,Exp1,d11032021,LBPHd,rating,1.0,31.0,Maca1n.jpg,3.885,69.0,1.1472076778327185,0.6459190182656074
782,Exp1,d11032021,LBPHd,rating,2.0,48.0,Picb1n.jpg,3.355,60.0,0.2470595295135219,-0.0024011859415076
783,Exp1,d11032021,LBPHd,rating,3.0,8.0,Klina1.jpg,3.118,63.0,-0.1554595481311002,0.2137055487941973
784,Exp1,d11032021,LBPHd,rating,4.0,53.0,Gorka1.jpg,3.516,59.0,0.5205007594746365,-0.0744367641867427
785,Exp1,d11032021,LBPHd,rating,5.0,35.0,Wdeka1.jpg,3.181,65.0,-0.0484608059724029,0.3577767052846674
786,Exp1,d11032021,LBPHd,rating,6.0,17.0,Picab1.jpg,3.287,60.0,0.1315688236914361,-0.0024011859415076
787,Exp1,d11032021,LBPHd,rating,7.0,1.0,Lewia1.jpg,3.165,62.0,-0.0756350896952467,0.1416699705489623
788,Exp1,d11032021,LBPHd,rating,8.0,30.0,Lasse1.jpg,2.709,60.0,-0.8501021757962914,-0.0024011859415076
789,Exp1,d11032021,LBPHd,rating,9.0,16.0,Lewa1n.jpg,3.654,34.0,0.754878956584163,-1.875326220317618
790,Exp1,d11032021,LBPHd,rating,10.0,34.0,Monb1n.jpg,3.813,57.0,1.0249234010799224,-0.2185079206772127
791,Exp1,d11032021,LBPHd,rating,11.0,29.0,Clifb1.jpg,3.213,55.0,0.0058877614732844,-0.3625790771676828
792,Exp1,d11032021,LBPHd,rating,12.0,10.0,Stera1.jpg,2.957,72.0,-0.4289007780922148,0.8620257530013125
793,Exp1,d11032021,LBPHd,rating,13.0,32.0,Macka1.jpg,2.878,78.0,-0.5630738039737551,1.2942392224727226
794,Exp1,d11032021,LBPHd,rating,14.0,3.0,Fogeg1.jpg,3.781,91.0,0.970574833634235,2.230701739660778
795,Exp1,d11032021,LBPHd,rating,15.0,20.0,Gorc1n.jpg,2.933,32.0,-0.4696622036764803,-2.019397376808088
796,Exp1,d11032021,LBPHd,rating,16.0,47.0,Kupkd1.jpg,4.037,65.0,1.4053633731997337,0.3577767052846674
797,Exp1,d11032021,LBPHd,rating,17.0,11.0,Wdekb1.jpg,3.789,56.0,0.9841619754956568,-0.2905434989224477
798,Exp1,d11032021,LBPHd,rating,18.0,40.0,Krab1n.jpg,2.573,60.0,-1.081083587440463,-0.0024011859415076
799,Exp1,d11032021,LBPHd,rating,19.0,6.0,Wdekc1.jpg,3.453,56.0,0.4135020173159391,-0.2905434989224477
800,Exp1,d11032021,LBPHd,rating,20.0,56.0,Luisc1.jpg,3.134,82.0,-0.1282852644082565,1.5823815354536626
801,Exp1,d11032021,LBPHd,rating,21.0,28.0,Krasa1.jpg,2.854,74.0,-0.6038352295580206,1.0060969094917824
802,Exp1,d11032021,LBPHd,rating,22.0,15.0,Clia1n.jpg,5.358,64.0,3.648940173067014,0.2857411270394323
803,Exp1,d11032021,LBPHd,rating,23.0,21.0,Lewb1n.jpg,3.102,72.0,-0.1826338318539439,0.8620257530013125
804,Exp1,d11032021,LBPHd,rating,24.0,18.0,Krasb1.jpg,3.542,60.0,0.5646589705242571,-0.0024011859415076
805,Exp1,d11032021,LBPHd,rating,25.0,59.0,Kraa1n.jpg,3.862,45.0,1.1081446449811312,-1.082934859620033
806,Exp1,d11032021,LBPHd,rating,26.0,33.0,Kupc1n.jpg,2.91,54.0,-0.5087252365280677,-0.4346146554129177
807,Exp1,d11032021,LBPHd,rating,27.0,22.0,Macb1n.jpg,2.702,66.0,-0.8619909249250357,0.4298122835299023
808,Exp1,d11032021,LBPHd,rating,28.0,44.0,Lassf1.jpg,2.71,60.0,-0.8484037830636139,-0.0024011859415076
809,Exp1,d11032021,LBPHd,rating,29.0,27.0,Vinb1n.jpg,2.782,46.0,-0.7261195063108172,-1.010899281374798
810,Exp1,d11032021,LBPHd,rating,30.0,23.0,Lewib1.jpg,2.966,77.0,-0.4136152434981147,1.2222036442274875
811,Exp1,d11032021,LBPHd,rating,31.0,5.0,Kupb1n.jpg,3.132,67.0,-0.1316820498736116,0.5018478617751374
812,Exp1,d11032021,LBPHd,rating,32.0,4.0,Mackb1.jpg,2.958,66.0,-0.4272023853595365,0.4298122835299023
813,Exp1,d11032021,LBPHd,rating,33.0,19.0,Macc1n.jpg,3.293,74.0,0.1417591800875029,1.0060969094917824
814,Exp1,d11032021,LBPHd,rating,34.0,7.0,Pica1n.jpg,2.966,79.0,-0.4136152434981147,1.3662748007179577
815,Exp1,d11032021,LBPHd,rating,35.0,51.0,Gora1n.jpg,3.094,63.0,-0.1962209737153658,0.2137055487941973
816,Exp1,d11032021,LBPHd,rating,36.0,0.0,Gorkc1.jpg,4.086,65.0,1.488584617100943,0.3577767052846674
817,Exp1,d11032021,LBPHd,rating,37.0,49.0,Hinda1.jpg,2.469,89.0,-1.2577164316389469,2.086630583170308
818,Exp1,d11032021,LBPHd,rating,38.0,46.0,Deka1n.jpg,2.598,68.0,-1.0386237691235198,0.5738834400203724
819,Exp1,d11032021,LBPHd,rating,39.0,41.0,Vincb1.jpg,3.374,57.0,0.279328991434399,-0.2185079206772127
820,Exp1,d11032021,LBPHd,rating,40.0,14.0,Kupkb1.jpg,2.422,64.0,-1.3375408900747998,0.2857411270394323
821,Exp1,d11032021,LBPHd,rating,41.0,13.0,Picak1.jpg,2.782,47.0,-0.7261195063108172,-0.9388637031295628
822,Exp1,d11032021,LBPHd,rating,42.0,43.0,Picac1.jpg,2.91,35.0,-0.5087252365280677,-1.803290642072383
823,Exp1,d11032021,LBPHd,rating,43.0,38.0,Lasc1n.jpg,2.446,35.0,-1.2967794644905342,-1.803290642072383
824,Exp1,d11032021,LBPHd,rating,44.0,58.0,Mackc1.jpg,3.398,57.0,0.3200904170186645,-0.2185079206772127
825,Exp1,d11032021,LBPHd,rating,45.0,2.0,Dekob1.jpg,2.862,72.0,-0.5902480876965988,0.8620257530013125
826,Exp1,d11032021,LBPHd,rating,46.0,52.0,Picaa1.jpg,3.646,62.0,0.7412918147227412,0.1416699705489623
827,Exp1,d11032021,LBPHd,rating,47.0,39.0,Dekb1n.jpg,2.678,69.0,-0.9027523505093012,0.6459190182656074
828,Exp1,d11032021,LBPHd,rating,48.0,54.0,Kupka1.jpg,2.67,82.0,-0.9163394923707232,1.5823815354536626
829,Exp1,d11032021,LBPHd,rating,49.0,45.0,Klia1n.jpg,2.43,64.0,-1.323953748213378,0.2857411270394323
830,Exp1,d11032021,LBPHd,rating,50.0,36.0,Gorkf1.jpg,2.741,60.0,-0.795753608350604,-0.0024011859415076
831,Exp1,d11032021,LBPHd,rating,51.0,50.0,Gorke1.jpg,2.926,44.0,-0.4815509528052239,-1.154970437865268
832,Exp1,d11032021,LBPHd,rating,52.0,12.0,Kupkc1.jpg,2.573,46.0,-1.081083587440463,-1.010899281374798
833,Exp1,d11032021,LBPHd,rating,53.0,57.0,Lewc1n.jpg,4.326,41.0,1.896198872943597,-1.371077172600973
834,Exp1,d11032021,LBPHd,rating,54.0,24.0,Dekoa1.jpg,3.365,45.0,0.2640434568402995,-1.082934859620033
835,Exp1,d11032021,LBPHd,rating,55.0,42.0,Picc1n.jpg,3.061,43.0,-0.2522679338937307,-1.227006016110503
836,Exp1,d11032021,LBPHd,rating,56.0,25.0,Clifa1.jpg,3.845,56.0,1.0792719685256098,-0.2905434989224477
837,Exp1,d11032021,LBPHd,rating,57.0,26.0,Clib1n.jpg,2.821,44.0,-0.6598821897363856,-1.154970437865268
838,Exp1,d11032021,LBPHd,rating,58.0,37.0,Mondb1.jpg,2.67,57.0,-0.9163394923707232,-0.2185079206772127
839,Exp1,d11032021,LBPHd,rating,59.0,55.0,Lewic1.jpg,4.03,71.0,1.39347462407099,0.7899901747560775
840,Exp1,d11032021,mRarI,rating,0.0,42.0,Picc1n.jpg,3.294,4.0,0.6025486400789049,-0.7455990228221685
841,Exp1,d11032021,mRarI,rating,1.0,29.0,Clifb1.jpg,2.398,2.0,0.0410764529740236,-0.9281947018806588
842,Exp1,d11032021,mRarI,rating,2.0,12.0,Kupkc1.jpg,1.606,7.0,-0.4552248552704696,-0.4717055042344331
843,Exp1,d11032021,mRarI,rating,3.0,51.0,Gora1n.jpg,2.406,5.0,0.0460895975017458,-0.6543011832929233
844,Exp1,d11032021,mRarI,rating,4.0,18.0,Krasb1.jpg,1.757,12.0,-0.3606017523097141,-0.0152163065882074
845,Exp1,d11032021,mRarI,rating,5.0,8.0,Klina1.jpg,2.717,5.0,0.2409755910169445,-0.6543011832929233
846,Exp1,d11032021,mRarI,rating,6.0,45.0,Klia1n.jpg,3.366,5.0,0.6476669408284043,-0.6543011832929233
847,Exp1,d11032021,mRarI,rating,7.0,30.0,Lasse1.jpg,13.934,9.0,7.270030861949369,-0.2891098251759428
848,Exp1,d11032021,mRarI,rating,8.0,39.0,Dekb1n.jpg,1.878,6.0,-0.2847779413279165,-0.5630033437636782
849,Exp1,d11032021,mRarI,rating,9.0,31.0,Maca1n.jpg,2.742,11.0,0.2566416676660762,-0.1065141461174526
850,Exp1,d11032021,mRarI,rating,10.0,3.0,Fogeg1.jpg,2.742,7.0,0.2566416676660762,-0.4717055042344331
851,Exp1,d11032021,mRarI,rating,11.0,4.0,Mackb1.jpg,1.934,8.0,-0.2496859296338613,-0.3804076647051879
852,Exp1,d11032021,mRarI,rating,12.0,11.0,Wdekb1.jpg,1.639,7.0,-0.4345456340936157,-0.4717055042344331
853,Exp1,d11032021,mRarI,rating,13.0,7.0,Pica1n.jpg,1.541,10.0,-0.4959566545582122,-0.1978119856466977
854,Exp1,d11032021,mRarI,rating,14.0,1.0,Lewia1.jpg,2.253,35.0,-0.0497867915909403,2.0846340025844308
855,Exp1,d11032021,mRarI,rating,15.0,10.0,Stera1.jpg,1.943,7.0,-0.2440461420401738,-0.4717055042344331
856,Exp1,d11032021,mRarI,rating,16.0,46.0,Deka1n.jpg,1.853,7.0,-0.3004440179770482,-0.4717055042344331
857,Exp1,d11032021,mRarI,rating,17.0,52.0,Picaa1.jpg,1.99,11.0,-0.2145939179398062,-0.1065141461174526
858,Exp1,d11032021,mRarI,rating,18.0,33.0,Kupc1n.jpg,1.878,7.0,-0.2847779413279165,-0.4717055042344331
859,Exp1,d11032021,mRarI,rating,19.0,2.0,Dekob1.jpg,1.533,9.0,-0.5009697990859343,-0.2891098251759428
860,Exp1,d11032021,mRarI,rating,20.0,5.0,Kupb1n.jpg,1.99,6.0,-0.2145939179398062,-0.5630033437636782
861,Exp1,d11032021,mRarI,rating,21.0,21.0,Lewb1n.jpg,1.486,9.0,-0.5304220231863019,-0.2891098251759428
862,Exp1,d11032021,mRarI,rating,22.0,19.0,Macc1n.jpg,1.35,11.0,-0.6156454801575785,-0.1065141461174526
863,Exp1,d11032021,mRarI,rating,23.0,6.0,Wdekc1.jpg,1.943,10.0,-0.2440461420401738,-0.1978119856466977
864,Exp1,d11032021,mRarI,rating,24.0,32.0,Macka1.jpg,1.949,8.0,-0.2402862836443822,-0.3804076647051879
865,Exp1,d11032021,mRarI,rating,25.0,36.0,Gorkf1.jpg,2.106,25.0,-0.1419033222878351,1.1716556072919793
866,Exp1,d11032021,mRarI,rating,26.0,16.0,Lewa1n.jpg,2.107,16.0,-0.1412766792218696,0.349975051528773
867,Exp1,d11032021,mRarI,rating,27.0,54.0,Kupka1.jpg,1.782,16.0,-0.3449356756605822,0.349975051528773
868,Exp1,d11032021,mRarI,rating,28.0,59.0,Kraa1n.jpg,1.894,13.0,-0.2747516522724721,0.0760815329410376
869,Exp1,d11032021,mRarI,rating,29.0,15.0,Clia1n.jpg,1.814,12.0,-0.3248830975496936,-0.0152163065882074
870,Exp1,d11032021,mRarI,rating,30.0,56.0,Luisc1.jpg,2.479,13.0,0.0918345413172104,0.0760815329410376
871,Exp1,d11032021,mRarI,rating,31.0,43.0,Picac1.jpg,1.966,14.0,-0.2296333515229727,0.1673793724702827
872,Exp1,d11032021,mRarI,rating,32.0,35.0,Wdeka1.jpg,2.398,3.0,0.0410764529740236,-0.8368968623514136
873,Exp1,d11032021,mRarI,rating,33.0,57.0,Lewc1n.jpg,2.629,65.0,0.1858310012120008,4.823569188461784
874,Exp1,d11032021,mRarI,rating,34.0,50.0,Gorke1.jpg,2.31,9.0,-0.01406813683092,-0.2891098251759428
875,Exp1,d11032021,mRarI,rating,35.0,44.0,Lassf1.jpg,1.773,11.0,-0.3505754632542697,-0.1065141461174526
876,Exp1,d11032021,mRarI,rating,36.0,13.0,Picak1.jpg,1.933,9.0,-0.2503125726998266,-0.2891098251759428
877,Exp1,d11032021,mRarI,rating,37.0,20.0,Gorc1n.jpg,2.181,11.0,-0.0949050923404398,-0.1065141461174526
878,Exp1,d11032021,mRarI,rating,38.0,40.0,Krab1n.jpg,1.591,9.0,-0.4646245012599487,-0.2891098251759428
879,Exp1,d11032021,mRarI,rating,39.0,41.0,Vincb1.jpg,2.773,7.0,0.2760676027109996,-0.4717055042344331
880,Exp1,d11032021,mRarI,rating,40.0,47.0,Kupkd1.jpg,1.933,11.0,-0.2503125726998266,-0.1065141461174526
881,Exp1,d11032021,mRarI,rating,41.0,25.0,Clifa1.jpg,2.175,7.0,-0.0986649507362315,-0.4717055042344331
882,Exp1,d11032021,mRarI,rating,42.0,34.0,Monb1n.jpg,1.965,12.0,-0.2302599945889379,-0.0152163065882074
883,Exp1,d11032021,mRarI,rating,43.0,37.0,Mondb1.jpg,2.063,8.0,-0.1688489741243415,-0.3804076647051879
884,Exp1,d11032021,mRarI,rating,44.0,22.0,Macb1n.jpg,2.478,8.0,0.0912078982512452,-0.3804076647051879
885,Exp1,d11032021,mRarI,rating,45.0,38.0,Lasc1n.jpg,3.19,12.0,0.5373777612185168,-0.0152163065882074
886,Exp1,d11032021,mRarI,rating,46.0,9.0,Lassc1.jpg,2.102,14.0,-0.1444098945516961,0.1673793724702827
887,Exp1,d11032021,mRarI,rating,47.0,0.0,Gorkc1.jpg,2.19,11.0,-0.0892653047467524,-0.1065141461174526
888,Exp1,d11032021,mRarI,rating,48.0,23.0,Lewib1.jpg,1.822,15.0,-0.3198699530219714,0.2586772119995279
889,Exp1,d11032021,mRarI,rating,49.0,49.0,Hinda1.jpg,1.814,11.0,-0.3248830975496936,-0.1065141461174526
890,Exp1,d11032021,mRarI,rating,50.0,58.0,Mackc1.jpg,2.605,14.0,0.1707915676288343,0.1673793724702827
891,Exp1,d11032021,mRarI,rating,51.0,27.0,Vinb1n.jpg,3.456,12.0,0.7040648167652784,-0.0152163065882074
892,Exp1,d11032021,mRarI,rating,52.0,55.0,Lewic1.jpg,2.414,11.0,0.0511027420294679,-0.1065141461174526
893,Exp1,d11032021,mRarI,rating,53.0,17.0,Picab1.jpg,1.862,14.0,-0.2948042303833607,0.1673793724702827
894,Exp1,d11032021,mRarI,rating,54.0,28.0,Krasa1.jpg,1.83,9.0,-0.3148568084942493,-0.2891098251759428
895,Exp1,d11032021,mRarI,rating,55.0,53.0,Gorka1.jpg,1.774,11.0,-0.3499488201883044,-0.1065141461174526
896,Exp1,d11032021,mRarI,rating,56.0,14.0,Kupkb1.jpg,2.782,64.0,0.281707390304687,4.73227134893254
897,Exp1,d11032021,mRarI,rating,57.0,48.0,Picb1n.jpg,1.774,11.0,-0.3499488201883044,-0.1065141461174526
898,Exp1,d11032021,mRarI,rating,58.0,26.0,Clib1n.jpg,1.533,12.0,-0.5009697990859343,-0.0152163065882074
899,Exp1,d11032021,mRarI,rating,59.0,24.0,Dekoa1.jpg,2.327,12.0,-0.0034152047095105,-0.0152163065882074
900,Exp1,d11032021,zwAoN,rating,0.0,7.0,Pica1n.jpg,4.862,50.0,-0.3481704723408769,-0.2299718711913705
901,Exp1,d11032021,zwAoN,rating,1.0,27.0,Vinb1n.jpg,3.769,71.0,-0.4815331239156372,1.2116428437396085
902,Exp1,d11032021,zwAoN,rating,2.0,40.0,Krab1n.jpg,4.288,56.0,-0.4182072170837062,0.1819180473603377
903,Exp1,d11032021,zwAoN,rating,3.0,43.0,Picac1.jpg,16.571,56.0,1.0805059112719948,0.1819180473603377
904,Exp1,d11032021,zwAoN,rating,4.0,0.0,Gorkc1.jpg,0.132,50.0,-0.9253025326781288,-0.2299718711913705
905,Exp1,d11032021,zwAoN,rating,5.0,51.0,Gora1n.jpg,0.213,50.0,-0.9154192986638968,-0.2299718711913705
906,Exp1,d11032021,zwAoN,rating,6.0,44.0,Lassf1.jpg,12.765,34.0,0.6161159278378338,-1.3283449873292592
907,Exp1,d11032021,zwAoN,rating,7.0,55.0,Lewic1.jpg,10.303,59.0,0.3157144198990782,0.3878630066361918
908,Exp1,d11032021,zwAoN,rating,8.0,47.0,Kupkd1.jpg,3.658,55.0,-0.4950768149721773,0.1132697276017196
909,Exp1,d11032021,zwAoN,rating,9.0,11.0,Wdekb1.jpg,4.922,25.0,-0.3408495582562607,-1.9461798651568216
910,Exp1,d11032021,zwAoN,rating,10.0,48.0,Picb1n.jpg,6.252,62.0,-0.1785692960472659,0.593807965912046
911,Exp1,d11032021,zwAoN,rating,11.0,28.0,Krasa1.jpg,6.888,58.0,-0.1009676067503331,0.3192146868775738
912,Exp1,d11032021,zwAoN,rating,12.0,58.0,Mackc1.jpg,7.338,36.0,-0.0460607511157108,-1.1910483478120233
913,Exp1,d11032021,zwAoN,rating,13.0,32.0,Macka1.jpg,3.952,38.0,-0.4592043359575575,-1.0537517082947871
914,Exp1,d11032021,zwAoN,rating,14.0,33.0,Kupc1n.jpg,4.283,61.0,-0.4188172932574242,0.5251596461534279
915,Exp1,d11032021,zwAoN,rating,15.0,2.0,Dekob1.jpg,3.719,39.0,-0.4876338856528175,-0.9851033885361692
916,Exp1,d11032021,zwAoN,rating,16.0,35.0,Wdeka1.jpg,4.54,59.0,-0.3874593779283177,0.3878630066361918
917,Exp1,d11032021,zwAoN,rating,17.0,10.0,Stera1.jpg,4.808,39.0,-0.3547592950170316,-0.9851033885361692
918,Exp1,d11032021,zwAoN,rating,18.0,31.0,Maca1n.jpg,5.271,60.0,-0.2982662413307425,0.4565113263948099
919,Exp1,d11032021,zwAoN,rating,19.0,49.0,Hinda1.jpg,5.231,64.0,-0.3031468507204867,0.7311046054292821
920,Exp1,d11032021,zwAoN,rating,20.0,45.0,Klia1n.jpg,4.309,65.0,-0.4156448971540905,0.7997529251879001
921,Exp1,d11032021,zwAoN,rating,21.0,5.0,Kupb1n.jpg,6.221,55.0,-0.1823517683243176,0.1132697276017196
922,Exp1,d11032021,zwAoN,rating,22.0,52.0,Picaa1.jpg,7.468,34.0,-0.0301987705990422,-1.3283449873292592
923,Exp1,d11032021,zwAoN,rating,23.0,19.0,Macc1n.jpg,4.001,42.0,-0.4532255894551208,-0.7791584292603149
924,Exp1,d11032021,zwAoN,rating,24.0,1.0,Lewia1.jpg,7.128,66.0,-0.0716839504118679,0.8684012449465182
925,Exp1,d11032021,zwAoN,rating,25.0,15.0,Clia1n.jpg,8.041,58.0,0.0397159589090435,0.3192146868775738
926,Exp1,d11032021,zwAoN,rating,26.0,29.0,Clifb1.jpg,24.694,50.0,2.0716356630942983,-0.2299718711913705
927,Exp1,d11032021,zwAoN,rating,27.0,9.0,Lassc1.jpg,2.778,57.0,-0.6024502215465499,0.2505663671189557
928,Exp1,d11032021,zwAoN,rating,28.0,12.0,Kupkc1.jpg,4.445,64.0,-0.3990508252289602,0.7311046054292821
929,Exp1,d11032021,zwAoN,rating,29.0,14.0,Kupkb1.jpg,1.288,50.0,-0.7842529213145214,-0.2299718711913705
930,Exp1,d11032021,zwAoN,rating,30.0,13.0,Picak1.jpg,5.509,61.0,-0.2692266154617644,0.5251596461534279
931,Exp1,d11032021,zwAoN,rating,31.0,39.0,Dekb1n.jpg,8.214,36.0,0.0608245945196872,-1.1910483478120233
932,Exp1,d11032021,zwAoN,rating,32.0,20.0,Gorc1n.jpg,9.694,50.0,0.2414071419402227,-0.2299718711913705
933,Exp1,d11032021,zwAoN,rating,33.0,42.0,Picc1n.jpg,5.137,64.0,-0.3146162827863856,0.7311046054292821
934,Exp1,d11032021,zwAoN,rating,34.0,57.0,Lewc1n.jpg,15.109,58.0,0.902119638076844,0.3192146868775738
935,Exp1,d11032021,zwAoN,rating,35.0,8.0,Klina1.jpg,14.345,63.0,0.8088999987327298,0.6624562856706641
936,Exp1,d11032021,zwAoN,rating,36.0,24.0,Dekoa1.jpg,15.829,68.0,0.9899706070922398,1.0056978844637543
937,Exp1,d11032021,zwAoN,rating,37.0,26.0,Clib1n.jpg,9.016,50.0,0.1586808127840584,-0.2299718711913705
938,Exp1,d11032021,zwAoN,rating,38.0,4.0,Mackb1.jpg,12.736,40.0,0.6125774860302693,-0.916455068777551
939,Exp1,d11032021,zwAoN,rating,39.0,59.0,Kraa1n.jpg,5.26,62.0,-0.2996084089129222,0.593807965912046
940,Exp1,d11032021,zwAoN,rating,40.0,38.0,Lasc1n.jpg,3.237,64.0,-0.5464452287992352,0.7311046054292821
941,Exp1,d11032021,zwAoN,rating,41.0,6.0,Wdekc1.jpg,2.457,40.0,-0.6416171118992471,-0.916455068777551
942,Exp1,d11032021,zwAoN,rating,42.0,34.0,Monb1n.jpg,3.377,58.0,-0.5293630959351304,0.3192146868775738
943,Exp1,d11032021,zwAoN,rating,43.0,25.0,Clifa1.jpg,6.54,74.0,-0.1434289084411076,1.4175878030154625
944,Exp1,d11032021,zwAoN,rating,44.0,46.0,Deka1n.jpg,3.744,19.0,-0.4845835047842273,-2.35806978370853
945,Exp1,d11032021,zwAoN,rating,45.0,41.0,Vincb1.jpg,7.049,65.0,-0.0813231539566126,0.7997529251879001
946,Exp1,d11032021,zwAoN,rating,46.0,53.0,Gorka1.jpg,5.983,62.0,-0.2113913941932957,0.593807965912046
947,Exp1,d11032021,zwAoN,rating,47.0,17.0,Picab1.jpg,2.631,39.0,-0.6203864610538599,-0.9851033885361692
948,Exp1,d11032021,zwAoN,rating,48.0,16.0,Lewa1n.jpg,5.969,76.0,-0.2130996074797061,1.5548844425326986
949,Exp1,d11032021,zwAoN,rating,49.0,54.0,Kupka1.jpg,4.177,68.0,-0.4317509081402464,1.0056978844637543
950,Exp1,d11032021,zwAoN,rating,50.0,36.0,Gorkf1.jpg,3.572,29.0,-0.5055701251601274,-1.6715865861223496
951,Exp1,d11032021,zwAoN,rating,51.0,50.0,Gorke1.jpg,3.904,22.0,-0.4650610672252506,-2.152124824432676
952,Exp1,d11032021,zwAoN,rating,52.0,3.0,Fogeg1.jpg,3.88,71.0,-0.4679894328590971,1.2116428437396085
953,Exp1,d11032021,zwAoN,rating,53.0,56.0,Luisc1.jpg,4.746,38.0,-0.3623242395711351,-1.0537517082947871
954,Exp1,d11032021,zwAoN,rating,54.0,22.0,Macb1n.jpg,6.551,42.0,-0.142086740858928,-0.7791584292603149
955,Exp1,d11032021,zwAoN,rating,55.0,30.0,Lasse1.jpg,30.384,50.0,2.7659023487854117,-0.2299718711913705
956,Exp1,d11032021,zwAoN,rating,56.0,18.0,Krasb1.jpg,5.215,37.0,-0.3050990944763844,-1.1224000280534052
957,Exp1,d11032021,zwAoN,rating,57.0,37.0,Mondb1.jpg,6.243,87.0,-0.1796674331599583,2.310015959877497
958,Exp1,d11032021,zwAoN,rating,58.0,21.0,Lewb1n.jpg,13.008,81.0,0.6457656298805297,1.8981260413257888
959,Exp1,d11032021,zwAoN,rating,59.0,23.0,Lewib1.jpg,55.276,64.0,5.803105572023228,0.7311046054292821
960,Exp1,d11032021,XikH0,rating,0.0,13.0,Picak1.jpg,4.931,67.0,-0.1045537972624242,-0.0687597073318435
961,Exp1,d11032021,XikH0,rating,1.0,18.0,Krasb1.jpg,2.226,38.0,-0.127445206645161,-1.510228270674098
962,Exp1,d11032021,XikH0,rating,2.0,47.0,Kupkd1.jpg,3.48,67.0,-0.1168330708351972,-0.0687597073318435
963,Exp1,d11032021,XikH0,rating,3.0,11.0,Wdekb1.jpg,2.667,18.0,-0.1237131875923747,-2.504344521254964
964,Exp1,d11032021,XikH0,rating,4.0,17.0,Picab1.jpg,2.669,63.0,-0.1236962623358995,-0.2675829574480166
965,Exp1,d11032021,XikH0,rating,5.0,7.0,Pica1n.jpg,2.062,59.0,-0.1288330776761292,-0.4664062075641896
966,Exp1,d11032021,XikH0,rating,6.0,30.0,Lasse1.jpg,2.124,65.0,-0.1283083947253973,-0.16817133238993
967,Exp1,d11032021,XikH0,rating,7.0,29.0,Clifb1.jpg,2.094,71.0,-0.1285622735725256,0.1300635427843295
968,Exp1,d11032021,XikH0,rating,8.0,41.0,Vincb1.jpg,2.596,70.0,-0.1243140341972451,0.0803577302552862
969,Exp1,d11032021,XikH0,rating,9.0,38.0,Lasc1n.jpg,2.054,6.0,-0.12890077870203,-3.1008142716034826
970,Exp1,d11032021,XikH0,rating,10.0,54.0,Kupka1.jpg,2.015,61.0,-0.1292308212032969,-0.3669945825061031
971,Exp1,d11032021,XikH0,rating,11.0,59.0,Kraa1n.jpg,2.353,61.0,-0.1263704528589845,-0.3669945825061031
972,Exp1,d11032021,XikH0,rating,12.0,28.0,Krasa1.jpg,3.11,35.0,-0.1199642432831132,-1.659345708261228
973,Exp1,d11032021,XikH0,rating,13.0,40.0,Krab1n.jpg,2.266,61.0,-0.1271067015156566,-0.3669945825061031
974,Exp1,d11032021,XikH0,rating,14.0,15.0,Clia1n.jpg,2.346,60.0,-0.1264296912566477,-0.4167003950351464
975,Exp1,d11032021,XikH0,rating,15.0,44.0,Lassf1.jpg,1.708,65.0,-0.1318288480722433,-0.16817133238993
976,Exp1,d11032021,XikH0,rating,16.0,8.0,Klina1.jpg,1.636,34.0,-0.1324381573053513,-1.7090515207902712
977,Exp1,d11032021,XikH0,rating,17.0,58.0,Mackc1.jpg,2.478,69.0,-0.1253126243292831,0.030651917726243
978,Exp1,d11032021,XikH0,rating,18.0,27.0,Vinb1n.jpg,2.102,63.0,-0.1284945725466247,-0.2675829574480166
979,Exp1,d11032021,XikH0,rating,19.0,1.0,Lewia1.jpg,1.856,61.0,-0.1305763790930769,-0.3669945825061031
980,Exp1,d11032021,XikH0,rating,20.0,19.0,Macc1n.jpg,1.764,68.0,-0.1313549408909371,-0.0190538948028002
981,Exp1,d11032021,XikH0,rating,21.0,16.0,Lewa1n.jpg,1.88,68.0,-0.1303732760153743,-0.0190538948028002
982,Exp1,d11032021,XikH0,rating,22.0,6.0,Wdekc1.jpg,1.924,66.0,-0.1300009203729194,-0.1184655198608867
983,Exp1,d11032021,XikH0,rating,23.0,53.0,Gorka1.jpg,2.03,22.0,-0.1291038817797327,-2.3055212711387907
984,Exp1,d11032021,XikH0,rating,24.0,14.0,Kupkb1.jpg,1.614,66.0,-0.1326243351265787,-0.1184655198608867
985,Exp1,d11032021,XikH0,rating,25.0,43.0,Picac1.jpg,3.086,74.0,-0.1201673463608158,0.2791809803714593
986,Exp1,d11032021,XikH0,rating,26.0,10.0,Stera1.jpg,2.4,16.0,-0.1259727093318167,-2.6037561463130503
987,Exp1,d11032021,XikH0,rating,27.0,32.0,Macka1.jpg,1.51,72.0,-0.1335044484632902,0.1797693553133728
988,Exp1,d11032021,XikH0,rating,28.0,5.0,Kupb1n.jpg,1.802,76.0,-0.1310333610179079,0.3785926054295458
989,Exp1,d11032021,XikH0,rating,29.0,23.0,Lewib1.jpg,2.054,74.0,-0.12890077870203,0.2791809803714593
990,Exp1,d11032021,XikH0,rating,30.0,31.0,Maca1n.jpg,2.274,78.0,-0.1270390004897557,0.4780042304876324
991,Exp1,d11032021,XikH0,rating,31.0,33.0,Kupc1n.jpg,1.48,74.0,-0.1337583273104186,0.2791809803714593
992,Exp1,d11032021,XikH0,rating,32.0,37.0,Mondb1.jpg,1.942,77.0,-0.1298485930646424,0.4282984179585891
993,Exp1,d11032021,XikH0,rating,33.0,34.0,Monb1n.jpg,2.008,74.0,-0.1292900596009601,0.2791809803714593
994,Exp1,d11032021,XikH0,rating,34.0,39.0,Dekb1n.jpg,2.076,87.0,-0.1287146008808026,0.9253565432490218
995,Exp1,d11032021,XikH0,rating,35.0,24.0,Dekoa1.jpg,917.324,69.0,7.616688968335875,0.030651917726243
996,Exp1,d11032021,XikH0,rating,36.0,9.0,Lassc1.jpg,2.418,26.0,-0.1258203820235398,-2.1066980210226176
997,Exp1,d11032021,XikH0,rating,37.0,36.0,Gorkf1.jpg,1.839,77.0,-0.1307202437731163,0.4282984179585891
998,Exp1,d11032021,XikH0,rating,38.0,2.0,Dekob1.jpg,5.806,76.0,-0.0971489975545149,0.3785926054295458
999,Exp1,d11032021,XikH0,rating,39.0,56.0,Luisc1.jpg,1.699,71.0,-0.1319050117263818,0.1300635427843295
1000,Exp1,d11032021,XikH0,rating,40.0,3.0,Fogeg1.jpg,1.472,76.0,-0.1338260283363194,0.3785926054295458
1001,Exp1,d11032021,XikH0,rating,41.0,25.0,Clifa1.jpg,1.494,80.0,-0.133639850515092,0.577415855545719
1002,Exp1,d11032021,XikH0,rating,42.0,4.0,Mackb1.jpg,2.346,85.0,-0.1264296912566477,0.8259449181909353
1003,Exp1,d11032021,XikH0,rating,43.0,48.0,Picb1n.jpg,1.432,87.0,-0.1341645334658239,0.9253565432490218
1004,Exp1,d11032021,XikH0,rating,44.0,45.0,Klia1n.jpg,2.062,67.0,-0.1288330776761292,-0.0687597073318435
1005,Exp1,d11032021,XikH0,rating,45.0,46.0,Deka1n.jpg,1.528,82.0,-0.1333521211550132,0.6768274806038055
1006,Exp1,d11032021,XikH0,rating,46.0,26.0,Clib1n.jpg,1.068,85.0,-0.1372449301443142,0.8259449181909353
1007,Exp1,d11032021,XikH0,rating,47.0,20.0,Gorc1n.jpg,1.425,85.0,-0.1342237718634871,0.8259449181909353
1008,Exp1,d11032021,XikH0,rating,48.0,35.0,Wdeka1.jpg,1.486,82.0,-0.1337075515409929,0.6768274806038055
1009,Exp1,d11032021,XikH0,rating,49.0,52.0,Picaa1.jpg,1.668,91.0,-0.1321673532017478,1.124179793365195
1010,Exp1,d11032021,XikH0,rating,50.0,50.0,Gorke1.jpg,1.496,89.0,-0.1336229252586168,1.0247681683071084
1011,Exp1,d11032021,XikH0,rating,51.0,57.0,Lewc1n.jpg,1.046,93.0,-0.1374311079655416,1.2235914184232817
1012,Exp1,d11032021,XikH0,rating,52.0,55.0,Lewic1.jpg,1.842,84.0,-0.1306948558884035,0.776239105661892
1013,Exp1,d11032021,XikH0,rating,53.0,22.0,Macb1n.jpg,1.25,82.0,-0.135704731805069,0.6768274806038055
1014,Exp1,d11032021,XikH0,rating,54.0,51.0,Gora1n.jpg,1.22,91.0,-0.1359586106521974,1.124179793365195
1015,Exp1,d11032021,XikH0,rating,55.0,42.0,Picc1n.jpg,1.36,94.0,-0.1347738426989319,1.2732972309523247
1016,Exp1,d11032021,XikH0,rating,56.0,0.0,Gorkc1.jpg,1.518,86.0,-0.1334367474373894,0.8756507307199786
1017,Exp1,d11032021,XikH0,rating,57.0,49.0,Hinda1.jpg,1.196,83.0,-0.1361617137299,0.7265332931328488
1018,Exp1,d11032021,XikH0,rating,58.0,12.0,Kupkc1.jpg,1.212,84.0,-0.1360263116780982,0.776239105661892
1019,Exp1,d11032021,XikH0,rating,59.0,21.0,Lewb1n.jpg,1.322,92.0,-0.135095422571961,1.1738856058942382
1020,Exp1,d11042021,pKoz9,rating,0.0,53.0,Gorka1.jpg,7.538,64.0,2.1560854579125124,0.7375148633319673
1021,Exp1,d11042021,pKoz9,rating,1.0,16.0,Lewa1n.jpg,4.142,80.0,0.3883670988504687,1.411814166949766
1022,Exp1,d11042021,pKoz9,rating,2.0,8.0,Klina1.jpg,2.517,61.0,-0.4574934233744492,0.6110837439036301
1023,Exp1,d11042021,pKoz9,rating,3.0,13.0,Picak1.jpg,2.809,37.0,-0.3054987941500331,-0.4003652115230679
1024,Exp1,d11042021,pKoz9,rating,4.0,19.0,Macc1n.jpg,2.264,70.0,-0.5891874000654672,0.9903771021886416
1025,Exp1,d11042021,pKoz9,rating,5.0,10.0,Stera1.jpg,2.77,57.0,-0.3257994466834312,0.4425089179991803
1026,Exp1,d11042021,pKoz9,rating,6.0,22.0,Macb1n.jpg,2.616,56.0,-0.4059609977127464,0.4003652115230679
1027,Exp1,d11042021,pKoz9,rating,7.0,24.0,Dekoa1.jpg,3.134,56.0,-0.1363266897050497,0.4003652115230679
1028,Exp1,d11042021,pKoz9,rating,8.0,39.0,Dekb1n.jpg,3.512,38.0,0.0604334810032696,-0.3582215050469555
1029,Exp1,d11042021,pKoz9,rating,9.0,9.0,Lassc1.jpg,5.696,10.0,1.1972700228735589,-1.538245286378103
1030,Exp1,d11042021,pKoz9,rating,10.0,54.0,Kupka1.jpg,14.356,17.0,5.705055944392198,-1.2432393410453162
1031,Exp1,d11042021,pKoz9,rating,11.0,5.0,Kupb1n.jpg,5.607,68.0,1.1509428927332406,0.906089689236417
1032,Exp1,d11042021,pKoz9,rating,12.0,14.0,Kupkb1.jpg,2.647,10.0,-0.3898245815964559,-1.538245286378103
1033,Exp1,d11042021,pKoz9,rating,13.0,46.0,Deka1n.jpg,2.05,32.0,-0.7005807242230871,-0.6110837439036301
1034,Exp1,d11042021,pKoz9,rating,14.0,3.0,Fogeg1.jpg,3.012,99.0,-0.1998312950659357,2.2125445899959018
1035,Exp1,d11042021,pKoz9,rating,15.0,51.0,Gora1n.jpg,2.614,68.0,-0.4070020568170234,0.906089689236417
1036,Exp1,d11042021,pKoz9,rating,16.0,34.0,Monb1n.jpg,2.543,28.0,-0.4439596550188504,-0.7796585698080797
1037,Exp1,d11042021,pKoz9,rating,17.0,59.0,Kraa1n.jpg,3.207,52.0,-0.0983280323989457,0.2317903856186182
1038,Exp1,d11042021,pKoz9,rating,18.0,31.0,Maca1n.jpg,3.552,64.0,0.0812546630888061,0.7375148633319673
1039,Exp1,d11042021,pKoz9,rating,19.0,12.0,Kupkc1.jpg,5.72,49.0,1.2097627321248807,0.105359266190281
1040,Exp1,d11042021,pKoz9,rating,20.0,40.0,Krab1n.jpg,2.365,15.0,-0.5366139152994875,-1.327526753997541
1041,Exp1,d11042021,pKoz9,rating,21.0,6.0,Wdekc1.jpg,2.746,6.0,-0.3382921559347531,-1.7068201122825528
1042,Exp1,d11042021,pKoz9,rating,22.0,48.0,Picb1n.jpg,2.082,31.0,-0.683923778554658,-0.6532274503797424
1043,Exp1,d11042021,pKoz9,rating,23.0,4.0,Mackb1.jpg,2.52,39.0,-0.4559318347180339,-0.3160777985708431
1044,Exp1,d11042021,pKoz9,rating,24.0,7.0,Pica1n.jpg,2.29,65.0,-0.5756536317098685,0.7796585698080797
1045,Exp1,d11042021,pKoz9,rating,25.0,2.0,Dekob1.jpg,2.963,64.0,-0.2253372431207178,0.7375148633319673
1046,Exp1,d11042021,pKoz9,rating,26.0,0.0,Gorkc1.jpg,2.649,24.0,-0.3887835224921789,-0.9482333957125294
1047,Exp1,d11042021,pKoz9,rating,27.0,30.0,Lasse1.jpg,2.122,24.0,-0.6631025964691215,-0.9482333957125294
1048,Exp1,d11042021,pKoz9,rating,28.0,33.0,Kupc1n.jpg,1.864,19.0,-0.7973992209208315,-1.158951928093091
1049,Exp1,d11042021,pKoz9,rating,29.0,57.0,Lewc1n.jpg,6.667,73.0,1.702704217999956,1.116808221616979
1050,Exp1,d11042021,pKoz9,rating,30.0,21.0,Lewb1n.jpg,3.166,46.0,-0.1196697440366205,-0.0210718532380562
1051,Exp1,d11042021,pKoz9,rating,31.0,35.0,Wdeka1.jpg,2.138,38.0,-0.654774123634907,-0.3582215050469555
1052,Exp1,d11042021,pKoz9,rating,32.0,15.0,Clia1n.jpg,3.191,26.0,-0.1066565052331603,-0.8639459827603045
1053,Exp1,d11042021,pKoz9,rating,33.0,47.0,Kupkd1.jpg,5.76,63.0,1.2305839142104174,0.6953711568558548
1054,Exp1,d11042021,pKoz9,rating,34.0,41.0,Vincb1.jpg,4.678,42.0,0.6673709387966568,-0.1896466791425058
1055,Exp1,d11042021,pKoz9,rating,35.0,43.0,Picac1.jpg,4.111,69.0,0.3722306827341777,0.9482333957125294
1056,Exp1,d11042021,pKoz9,rating,36.0,29.0,Clifb1.jpg,0.126,50.0,-1.7020795825373898,0.1475029726663934
1057,Exp1,d11042021,pKoz9,rating,37.0,36.0,Gorkf1.jpg,1.895,73.0,-0.7812628048045408,1.116808221616979
1058,Exp1,d11042021,pKoz9,rating,38.0,55.0,Lewic1.jpg,2.866,91.0,-0.2758286096781437,1.8753949381870023
1059,Exp1,d11042021,pKoz9,rating,39.0,18.0,Krasb1.jpg,2.84,57.0,-0.2893623780337425,0.4425089179991803
1060,Exp1,d11042021,pKoz9,rating,40.0,27.0,Vinb1n.jpg,2.559,57.0,-0.4356311821846358,0.4425089179991803
1061,Exp1,d11042021,pKoz9,rating,41.0,50.0,Gorke1.jpg,4.458,70.0,0.5528544373262065,0.9903771021886416
1062,Exp1,d11042021,pKoz9,rating,42.0,26.0,Clib1n.jpg,2.679,63.0,-0.3731676359280267,0.6953711568558548
1063,Exp1,d11042021,pKoz9,rating,43.0,32.0,Macka1.jpg,2.744,66.0,-0.3393332150390298,0.8218022762841921
1064,Exp1,d11042021,pKoz9,rating,44.0,20.0,Gorc1n.jpg,2.899,12.0,-0.2586511344575762,-1.4539578734258782
1065,Exp1,d11042021,pKoz9,rating,45.0,23.0,Lewib1.jpg,3.804,56.0,0.2124281102276855,0.4003652115230679
1066,Exp1,d11042021,pKoz9,rating,46.0,45.0,Klia1n.jpg,3.142,13.0,-0.1321624532879424,-1.411814166949766
1067,Exp1,d11042021,pKoz9,rating,47.0,25.0,Clifa1.jpg,2.284,23.0,-0.578776809022699,-0.9903771021886416
1068,Exp1,d11042021,pKoz9,rating,48.0,56.0,Luisc1.jpg,2.404,15.0,-0.5163132627660897,-1.327526753997541
1069,Exp1,d11042021,pKoz9,rating,49.0,28.0,Krasa1.jpg,2.698,56.0,-0.3632775744373968,0.4003652115230679
1070,Exp1,d11042021,pKoz9,rating,50.0,38.0,Lasc1n.jpg,2.769,2.0,-0.3263199762355696,-1.8753949381870023
1071,Exp1,d11042021,pKoz9,rating,51.0,11.0,Wdekb1.jpg,2.341,1.0,-0.5491066245508094,-1.9175386446631149
1072,Exp1,d11042021,pKoz9,rating,52.0,17.0,Picab1.jpg,2.664,35.0,-0.3809755792101027,-0.4846526244752928
1073,Exp1,d11042021,pKoz9,rating,53.0,37.0,Mondb1.jpg,4.426,62.0,0.5361974916577773,0.6532274503797424
1074,Exp1,d11042021,pKoz9,rating,54.0,58.0,Mackc1.jpg,2.487,61.0,-0.4731093099386014,0.6110837439036301
1075,Exp1,d11042021,pKoz9,rating,55.0,52.0,Picaa1.jpg,3.958,66.0,0.292589661257001,0.8218022762841921
1076,Exp1,d11042021,pKoz9,rating,56.0,1.0,Lewia1.jpg,4.119,87.0,0.376394919151285,1.7068201122825528
1077,Exp1,d11042021,pKoz9,rating,57.0,49.0,Hinda1.jpg,4.338,34.0,0.4903908910695971,-0.5267963309514052
1078,Exp1,d11042021,pKoz9,rating,58.0,44.0,Lassf1.jpg,2.081,34.0,-0.6844443081067964,-0.5267963309514052
1079,Exp1,d11042021,pKoz9,rating,59.0,42.0,Picc1n.jpg,3.555,46.0,0.0828162517452214,-0.0210718532380562
1080,Exp1,d11032021,A8WPp,rating,0.0,18.0,Krasb1.jpg,3.232,19.0,0.9748601165834652,-0.7364041356392534
1081,Exp1,d11032021,A8WPp,rating,1.0,41.0,Vincb1.jpg,3.907,26.0,2.274887601655255,-0.5088178685542745
1082,Exp1,d11032021,A8WPp,rating,2.0,23.0,Lewib1.jpg,3.025,58.0,0.5761850211614489,0.5315764952627725
1083,Exp1,d11032021,A8WPp,rating,3.0,16.0,Lewa1n.jpg,3.102,78.0,0.7244844527918605,1.1818229726484268
1084,Exp1,d11032021,A8WPp,rating,4.0,14.0,Kupkb1.jpg,2.726,95.0,0.0003209944407597,1.734532478426233
1085,Exp1,d11032021,A8WPp,rating,5.0,39.0,Dekb1n.jpg,4.021,56.0,2.494447799134046,0.466551847524207
1086,Exp1,d11032021,A8WPp,rating,6.0,13.0,Picak1.jpg,2.689,33.0,-0.0709397714076197,-0.2812316014692954
1087,Exp1,d11032021,A8WPp,rating,7.0,47.0,Kupkd1.jpg,3.205,62.0,0.9228590171805932,0.6616257907399034
1088,Exp1,d11032021,A8WPp,rating,8.0,32.0,Macka1.jpg,2.235,82.0,-0.9453286280336834,1.3118722681255577
1089,Exp1,d11032021,A8WPp,rating,9.0,58.0,Mackc1.jpg,2.355,6.0,-0.7142126306875872,-1.1590643459399288
1090,Exp1,d11032021,A8WPp,rating,10.0,3.0,Fogeg1.jpg,3.357,17.0,1.2156059471523153,-0.8014287833778189
1091,Exp1,d11032021,A8WPp,rating,11.0,6.0,Wdekc1.jpg,2.543,5.0,-0.3521309015120364,-1.1915766698092114
1092,Exp1,d11032021,A8WPp,rating,12.0,8.0,Klina1.jpg,2.488,43.0,-0.4580590669623307,0.0438916372235317
1093,Exp1,d11032021,A8WPp,rating,13.0,31.0,Maca1n.jpg,2.318,55.0,-0.7854733965359667,0.4340395236549243
1094,Exp1,d11032021,A8WPp,rating,14.0,54.0,Kupka1.jpg,2.346,22.0,-0.7315463304885442,-0.6388671640314053
1095,Exp1,d11032021,A8WPp,rating,15.0,30.0,Lasse1.jpg,2.114,31.0,-1.1783705920243304,-0.3462562492078608
1096,Exp1,d11032021,A8WPp,rating,16.0,33.0,Kupc1n.jpg,3.318,93.0,1.1404932480148338,1.6695078306876676
