,version,group,PID,phase,block,condition,trial,chosen_trial,gain_left,stimulus_left,stimulus_right,painting_left,painting_right,rating_left,rating_right,left_chosen,chosen_obj,unchosen_obj,higher_outcome_chosen,rt,zscored_rt,delta_ratings,zcored_rating_left,zcored_rating_right,zscored_delta_ratings
144,V1,d09142021,CDRCj,final_decisions,1.0,1.0,0.0,0.0,0.0,11.0,37.0,Clifa1.jpg,Deka1n.jpg,63.0,40.0,1.0,11.0,37.0,0.0,1.253,1.899684009481328,23.0,0.3320407628137517,-0.7563588872645794,1.0883996500783308
145,V1,d09142021,CDRCj,final_decisions,1.0,0.0,1.0,1.0,0.0,31.0,63.0,Picac1.jpg,Lewia1.jpg,68.0,68.0,0.0,63.0,31.0,1.0,1.183,1.5715404945199407,0.0,0.5686493823959976,0.5686493823959976,0.0
146,V1,d09142021,CDRCj,final_decisions,1.0,0.0,2.0,0.0,1.0,56.0,26.0,Clib1n.jpg,Klid1n.jpg,61.0,58.0,0.0,26.0,56.0,0.0,1.44,2.7762959708781776,3.0,0.2373973149808533,0.0954321432315058,0.14196517174934753
147,V1,d09142021,CDRCj,final_decisions,1.0,1.0,3.0,0.0,1.0,48.0,11.0,Maca1n.jpg,Clifa1.jpg,67.0,63.0,0.0,11.0,48.0,0.0,1.308,2.15751105695099,4.0,0.5213276584795484,0.3320407628137517,0.1892868956657967
148,V1,d09142021,CDRCj,final_decisions,1.0,0.0,4.0,1.0,1.0,42.0,21.0,Mackc1.jpg,Kupkc1.jpg,68.0,67.0,1.0,42.0,21.0,1.0,1.334,2.2793929339366485,1.0,0.5686493823959976,0.5213276584795484,0.047321723916449177
149,V1,d09142021,CDRCj,final_decisions,1.0,1.0,5.0,1.0,1.0,44.0,55.0,Mackb1.jpg,Clia1n.jpg,42.0,57.0,1.0,44.0,55.0,1.0,1.218,1.735612252000634,-15.0,-0.6617154394316811,0.04811041931505662,-0.7098258587467378
150,V1,d09142021,CDRCj,final_decisions,1.0,0.0,6.0,0.0,0.0,46.0,56.0,Lewb1n.jpg,Clib1n.jpg,59.0,61.0,0.0,56.0,46.0,1.0,1.1540000000000001,1.4355953240359367,-2.0,0.142753867147955,0.2373973149808533,-0.09464344783289837
151,V1,d09142021,CDRCj,final_decisions,1.0,0.0,7.0,1.0,1.0,42.0,53.0,Mackc1.jpg,Macc1n.jpg,68.0,63.0,1.0,42.0,53.0,1.0,0.9840000000000001,0.63867535912971,5.0,0.5686493823959976,0.3320407628137517,0.2366086195822459
152,V1,d09142021,CDRCj,final_decisions,1.0,0.0,8.0,0.0,1.0,30.0,26.0,Kraa1n.jpg,Klid1n.jpg,38.0,58.0,1.0,30.0,26.0,1.0,1.226,1.7731143679962214,-20.0,-0.8510023350974778,0.0954321432315058,-0.9464344783289836
153,V1,d09142021,CDRCj,final_decisions,1.0,1.0,9.0,0.0,1.0,29.0,45.0,Klinb1.jpg,Lasc1n.jpg,41.0,67.0,1.0,29.0,45.0,1.0,1.3840000000000001,2.513781158909067,-26.0,-0.7090371633481303,0.5213276584795484,-1.2303648218276786
154,V1,d09142021,CDRCj,final_decisions,1.0,0.0,10.0,1.0,0.0,53.0,63.0,Macc1n.jpg,Lewia1.jpg,63.0,68.0,0.0,63.0,53.0,1.0,1.092,1.1449539250701368,-5.0,0.3320407628137517,0.5686493823959976,-0.2366086195822459
155,V1,d09142021,CDRCj,final_decisions,1.0,1.0,11.0,0.0,1.0,37.0,10.0,Deka1n.jpg,Vinb1n.jpg,40.0,70.0,1.0,37.0,10.0,1.0,1.4169999999999998,2.668477387390865,-30.0,-0.7563588872645794,0.663292830228896,-1.4196517174934753
156,V1,d09142021,CDRCj,final_decisions,1.0,1.0,12.0,1.0,1.0,5.0,39.0,Pica1n.jpg,Kupb1n.jpg,57.0,61.0,1.0,5.0,39.0,1.0,0.9079999999999999,0.2824052571716322,-4.0,0.04811041931505662,0.2373973149808533,-0.1892868956657967
157,V1,d09142021,CDRCj,final_decisions,1.0,0.0,13.0,0.0,1.0,30.0,69.0,Kraa1n.jpg,Picad1.jpg,38.0,40.0,1.0,30.0,69.0,1.0,0.894,0.2167765541793546,-2.0,-0.8510023350974778,-0.7563588872645794,-0.09464344783289837
158,V1,d09142021,CDRCj,final_decisions,1.0,0.0,14.0,1.0,0.0,31.0,68.0,Picac1.jpg,Mondb1.jpg,68.0,62.0,0.0,68.0,31.0,1.0,1.047,0.9340045225949584,6.0,0.5686493823959976,0.2847190388973025,0.28393034349869506
159,V1,d09142021,CDRCj,final_decisions,1.0,1.0,15.0,0.0,0.0,11.0,29.0,Clifa1.jpg,Klinb1.jpg,63.0,41.0,1.0,11.0,29.0,0.0,0.8079999999999999,-0.1863711927732072,22.0,0.3320407628137517,-0.7090371633481303,1.041077926161882
160,V1,d09142021,CDRCj,final_decisions,1.0,1.0,16.0,0.0,0.0,10.0,48.0,Vinb1n.jpg,Maca1n.jpg,70.0,67.0,1.0,10.0,48.0,0.0,1.038,0.8918146420999234,3.0,0.663292830228896,0.5213276584795484,0.14196517174934753
161,V1,d09142021,CDRCj,final_decisions,1.0,1.0,17.0,1.0,1.0,5.0,8.0,Pica1n.jpg,Picd1n.jpg,57.0,64.0,1.0,5.0,8.0,1.0,0.963,0.5402323046412936,-7.0,0.04811041931505662,0.3793624867302009,-0.3312520674151443
162,V1,d09142021,CDRCj,final_decisions,1.0,0.0,18.0,1.0,1.0,63.0,21.0,Lewia1.jpg,Kupkc1.jpg,68.0,67.0,1.0,63.0,21.0,1.0,0.968,0.5636711271385355,1.0,0.5686493823959976,0.5213276584795484,0.047321723916449177
163,V1,d09142021,CDRCj,final_decisions,1.0,0.0,19.0,1.0,1.0,68.0,53.0,Mondb1.jpg,Macc1n.jpg,62.0,63.0,1.0,68.0,53.0,1.0,0.948,0.4699158371495676,-1.0,0.2847190388973025,0.3320407628137517,-0.047321723916449177
164,V1,d09142021,CDRCj,final_decisions,1.0,0.0,20.0,0.0,1.0,47.0,69.0,Vina1n.jpg,Picad1.jpg,71.0,40.0,1.0,47.0,69.0,1.0,1.287,2.059068002462573,31.0,0.7106145541453451,-0.7563588872645794,1.4669734414099245
165,V1,d09142021,CDRCj,final_decisions,1.0,0.0,21.0,0.0,0.0,46.0,47.0,Lewb1n.jpg,Vina1n.jpg,59.0,71.0,0.0,47.0,46.0,1.0,1.0,0.7136795911208843,-12.0,0.142753867147955,0.7106145541453451,-0.5678606869973901
166,V1,d09142021,CDRCj,final_decisions,1.0,0.0,22.0,0.0,1.0,30.0,46.0,Kraa1n.jpg,Lewb1n.jpg,38.0,59.0,1.0,30.0,46.0,1.0,0.8640000000000001,0.07614361919590264,-21.0,-0.8510023350974778,0.142753867147955,-0.9937562022454328
167,V1,d09142021,CDRCj,final_decisions,1.0,1.0,23.0,1.0,0.0,55.0,12.0,Clia1n.jpg,Klie1n.jpg,57.0,62.0,0.0,12.0,55.0,1.0,0.93,0.3855360761594969,-5.0,0.04811041931505662,0.2847190388973025,-0.23660861958224594
168,V1,d09142021,CDRCj,final_decisions,1.0,0.0,24.0,1.0,0.0,21.0,68.0,Kupkc1.jpg,Mondb1.jpg,67.0,62.0,0.0,68.0,21.0,1.0,0.846,-0.008236141794168537,5.0,0.5213276584795484,0.2847190388973025,0.2366086195822459
169,V1,d09142021,CDRCj,final_decisions,1.0,0.0,25.0,0.0,0.0,26.0,47.0,Klid1n.jpg,Vina1n.jpg,58.0,71.0,0.0,47.0,26.0,1.0,1.124,1.2949623890524855,-13.0,0.0954321432315058,0.7106145541453451,-0.6151824109138393
170,V1,d09142021,CDRCj,final_decisions,1.0,1.0,26.0,0.0,1.0,37.0,45.0,Deka1n.jpg,Lasc1n.jpg,40.0,67.0,1.0,37.0,45.0,1.0,0.868,0.09489467719369624,-27.0,-0.7563588872645794,0.5213276584795484,-1.2776865457441278
171,V1,d09142021,CDRCj,final_decisions,1.0,1.0,27.0,1.0,0.0,39.0,44.0,Kupb1n.jpg,Mackb1.jpg,61.0,42.0,0.0,44.0,39.0,1.0,1.236,1.8199920129907048,19.0,0.2373973149808533,-0.6617154394316811,0.8991127544125345
172,V1,d09142021,CDRCj,final_decisions,1.0,1.0,28.0,1.0,0.0,8.0,12.0,Picd1n.jpg,Klie1n.jpg,64.0,62.0,0.0,12.0,8.0,1.0,0.84,-0.03636272879085893,2.0,0.3793624867302009,0.2847190388973025,0.09464344783289837
173,V1,d09142021,CDRCj,final_decisions,1.0,0.0,29.0,1.0,1.0,42.0,31.0,Mackc1.jpg,Picac1.jpg,68.0,68.0,1.0,42.0,31.0,1.0,0.688,-0.748902932707015,0.0,0.5686493823959976,0.5686493823959976,0.0
174,V1,d09142021,CDRCj,final_decisions,1.0,1.0,30.0,1.0,1.0,5.0,55.0,Pica1n.jpg,Clia1n.jpg,57.0,57.0,1.0,5.0,55.0,1.0,0.604,-1.14267515066068,0.0,0.04811041931505662,0.04811041931505662,0.0
175,V1,d09142021,CDRCj,final_decisions,1.0,1.0,31.0,1.0,1.0,12.0,39.0,Klie1n.jpg,Kupb1n.jpg,62.0,61.0,1.0,12.0,39.0,1.0,0.69,-0.7395274037081182,1.0,0.2847190388973025,0.2373973149808533,0.0473217239164492
176,V1,d09142021,CDRCj,final_decisions,1.0,1.0,32.0,0.0,1.0,48.0,45.0,Maca1n.jpg,Lasc1n.jpg,67.0,67.0,1.0,48.0,45.0,1.0,1.0,0.7136795911208843,0.0,0.5213276584795484,0.5213276584795484,0.0
177,V1,d09142021,CDRCj,final_decisions,1.0,1.0,33.0,0.0,0.0,10.0,29.0,Vinb1n.jpg,Klinb1.jpg,70.0,41.0,1.0,10.0,29.0,0.0,1.199,1.646544726511115,29.0,0.663292830228896,-0.7090371633481303,1.372329993577026
178,V1,d09142021,CDRCj,final_decisions,1.0,1.0,34.0,1.0,0.0,8.0,44.0,Picd1n.jpg,Mackb1.jpg,64.0,42.0,0.0,44.0,8.0,1.0,0.735,-0.5285780012329403,22.0,0.3793624867302009,-0.6617154394316811,1.041077926161882
179,V1,d09142021,CDRCj,final_decisions,1.0,0.0,35.0,0.0,0.0,69.0,56.0,Picad1.jpg,Clib1n.jpg,40.0,61.0,0.0,56.0,69.0,1.0,0.893,0.2120887896799062,-21.0,-0.7563588872645794,0.2373973149808533,-0.9937562022454328
180,V1,d09142021,CDRCj,final_decisions,2.0,0.0,36.0,0.0,0.0,46.0,47.0,Lewb1n.jpg,Vina1n.jpg,59.0,71.0,0.0,47.0,46.0,1.0,0.857,0.04332926769976385,-12.0,0.142753867147955,0.7106145541453451,-0.5678606869973901
181,V1,d09142021,CDRCj,final_decisions,2.0,0.0,37.0,0.0,1.0,56.0,69.0,Clib1n.jpg,Picad1.jpg,61.0,40.0,1.0,56.0,69.0,1.0,0.968,0.5636711271385355,21.0,0.2373973149808533,-0.7563588872645794,0.9937562022454328
182,V1,d09142021,CDRCj,final_decisions,2.0,0.0,38.0,0.0,1.0,47.0,26.0,Vina1n.jpg,Klid1n.jpg,71.0,58.0,1.0,47.0,26.0,1.0,0.968,0.5636711271385355,13.0,0.7106145541453451,0.0954321432315058,0.6151824109138393
183,V1,d09142021,CDRCj,final_decisions,2.0,0.0,39.0,1.0,1.0,42.0,53.0,Mackc1.jpg,Macc1n.jpg,68.0,63.0,1.0,42.0,53.0,1.0,0.7979999999999999,-0.23324883776769115,5.0,0.5686493823959976,0.3320407628137517,0.2366086195822459
184,V1,d09142021,CDRCj,final_decisions,2.0,0.0,40.0,1.0,0.0,31.0,42.0,Picac1.jpg,Mackc1.jpg,68.0,68.0,0.0,42.0,31.0,1.0,0.7120000000000001,-0.6363965847202534,0.0,0.5686493823959976,0.5686493823959976,0.0
185,V1,d09142021,CDRCj,final_decisions,2.0,1.0,41.0,0.0,0.0,45.0,37.0,Lasc1n.jpg,Deka1n.jpg,67.0,40.0,0.0,37.0,45.0,1.0,0.774,-0.3457551857544527,27.0,0.5213276584795484,-0.7563588872645794,1.2776865457441278
186,V1,d09142021,CDRCj,final_decisions,2.0,0.0,42.0,0.0,0.0,69.0,47.0,Picad1.jpg,Vina1n.jpg,40.0,71.0,0.0,47.0,69.0,1.0,0.7440000000000001,-0.4863881207379047,-31.0,-0.7563588872645794,0.7106145541453451,-1.4669734414099245
187,V1,d09142021,CDRCj,final_decisions,2.0,0.0,43.0,1.0,0.0,31.0,63.0,Picac1.jpg,Lewia1.jpg,68.0,68.0,0.0,63.0,31.0,1.0,0.706,-0.6645231717169439,0.0,0.5686493823959976,0.5686493823959976,0.0
188,V1,d09142021,CDRCj,final_decisions,2.0,0.0,44.0,0.0,1.0,56.0,26.0,Clib1n.jpg,Klid1n.jpg,61.0,58.0,1.0,56.0,26.0,1.0,0.91,0.291780786170529,3.0,0.2373973149808533,0.0954321432315058,0.14196517174934753
189,V1,d09142021,CDRCj,final_decisions,2.0,1.0,45.0,1.0,1.0,12.0,8.0,Klie1n.jpg,Picd1n.jpg,62.0,64.0,1.0,12.0,8.0,1.0,0.7140000000000001,-0.6270210557213566,-2.0,0.2847190388973025,0.3793624867302009,-0.09464344783289837
190,V1,d09142021,CDRCj,final_decisions,2.0,1.0,46.0,1.0,0.0,55.0,5.0,Clia1n.jpg,Pica1n.jpg,57.0,57.0,0.0,5.0,55.0,1.0,0.9279999999999999,0.37616054716060016,0.0,0.04811041931505662,0.04811041931505662,0.0
191,V1,d09142021,CDRCj,final_decisions,2.0,0.0,47.0,1.0,0.0,53.0,63.0,Macc1n.jpg,Lewia1.jpg,63.0,68.0,0.0,63.0,53.0,1.0,0.895,0.22146431867880295,-5.0,0.3320407628137517,0.5686493823959976,-0.2366086195822459
192,V1,d09142021,CDRCj,final_decisions,2.0,1.0,48.0,1.0,1.0,44.0,8.0,Mackb1.jpg,Picd1n.jpg,42.0,64.0,1.0,44.0,8.0,1.0,0.8440000000000001,-0.01761167079306534,-22.0,-0.6617154394316811,0.3793624867302009,-1.041077926161882
193,V1,d09142021,CDRCj,final_decisions,2.0,0.0,49.0,1.0,0.0,21.0,63.0,Kupkc1.jpg,Lewia1.jpg,67.0,68.0,0.0,63.0,21.0,1.0,0.665,-0.8567215161943277,-1.0,0.5213276584795484,0.5686493823959976,-0.047321723916449177
194,V1,d09142021,CDRCj,final_decisions,2.0,1.0,50.0,0.0,0.0,45.0,29.0,Lasc1n.jpg,Klinb1.jpg,67.0,41.0,1.0,45.0,29.0,0.0,1.274,1.9981270639697444,26.0,0.5213276584795484,-0.7090371633481303,1.2303648218276786
195,V1,d09142021,CDRCj,final_decisions,2.0,0.0,51.0,0.0,0.0,69.0,30.0,Picad1.jpg,Kraa1n.jpg,40.0,38.0,0.0,30.0,69.0,1.0,0.841,-0.031674964291410534,2.0,-0.7563588872645794,-0.8510023350974778,0.09464344783289837
196,V1,d09142021,CDRCj,final_decisions,2.0,1.0,52.0,0.0,0.0,11.0,37.0,Clifa1.jpg,Deka1n.jpg,63.0,40.0,1.0,11.0,37.0,0.0,0.7829999999999999,-0.3035653052594171,23.0,0.3320407628137517,-0.7563588872645794,1.0883996500783308
197,V1,d09142021,CDRCj,final_decisions,2.0,0.0,53.0,0.0,1.0,56.0,46.0,Clib1n.jpg,Lewb1n.jpg,61.0,59.0,1.0,56.0,46.0,1.0,0.8859999999999999,0.1792744381837674,2.0,0.2373973149808533,0.142753867147955,0.09464344783289837
198,V1,d09142021,CDRCj,final_decisions,2.0,1.0,54.0,1.0,0.0,39.0,12.0,Kupb1n.jpg,Klie1n.jpg,61.0,62.0,0.0,12.0,39.0,1.0,0.773,-0.3504429502539011,-1.0,0.2373973149808533,0.2847190388973025,-0.0473217239164492
199,V1,d09142021,CDRCj,final_decisions,2.0,1.0,55.0,1.0,0.0,8.0,5.0,Picd1n.jpg,Pica1n.jpg,64.0,57.0,0.0,5.0,8.0,1.0,0.8029999999999999,-0.20981001527044915,7.0,0.3793624867302009,0.04811041931505662,0.3312520674151443
200,V1,d09142021,CDRCj,final_decisions,2.0,1.0,56.0,0.0,1.0,48.0,11.0,Maca1n.jpg,Clifa1.jpg,67.0,63.0,0.0,11.0,48.0,0.0,0.935,0.4089748986567389,4.0,0.5213276584795484,0.3320407628137517,0.1892868956657967
201,V1,d09142021,CDRCj,final_decisions,2.0,0.0,57.0,0.0,1.0,30.0,26.0,Kraa1n.jpg,Klid1n.jpg,38.0,58.0,1.0,30.0,26.0,1.0,0.87,0.10427020619259304,-20.0,-0.8510023350974778,0.0954321432315058,-0.9464344783289836
202,V1,d09142021,CDRCj,final_decisions,2.0,0.0,58.0,1.0,1.0,42.0,21.0,Mackc1.jpg,Kupkc1.jpg,68.0,67.0,1.0,42.0,21.0,1.0,0.91,0.291780786170529,1.0,0.5686493823959976,0.5213276584795484,0.047321723916449177
203,V1,d09142021,CDRCj,final_decisions,2.0,0.0,59.0,1.0,1.0,68.0,53.0,Mondb1.jpg,Macc1n.jpg,62.0,63.0,1.0,68.0,53.0,1.0,0.742,-0.4957636497368015,-1.0,0.2847190388973025,0.3320407628137517,-0.047321723916449177
204,V1,d09142021,CDRCj,final_decisions,2.0,1.0,60.0,1.0,1.0,5.0,39.0,Pica1n.jpg,Kupb1n.jpg,57.0,61.0,1.0,5.0,39.0,1.0,1.004,0.732430649118678,-4.0,0.04811041931505662,0.2373973149808533,-0.1892868956657967
205,V1,d09142021,CDRCj,final_decisions,2.0,0.0,61.0,0.0,0.0,46.0,30.0,Lewb1n.jpg,Kraa1n.jpg,59.0,38.0,0.0,30.0,46.0,1.0,0.934,0.4042871341572905,21.0,0.142753867147955,-0.8510023350974778,0.9937562022454328
206,V1,d09142021,CDRCj,final_decisions,2.0,1.0,62.0,1.0,1.0,12.0,55.0,Klie1n.jpg,Clia1n.jpg,62.0,57.0,1.0,12.0,55.0,1.0,0.877,0.13708455768873182,5.0,0.2847190388973025,0.04811041931505662,0.23660861958224594
207,V1,d09142021,CDRCj,final_decisions,2.0,1.0,63.0,1.0,0.0,39.0,44.0,Kupb1n.jpg,Mackb1.jpg,61.0,42.0,0.0,44.0,39.0,1.0,0.672,-0.8239071646981888,19.0,0.2373973149808533,-0.6617154394316811,0.8991127544125345
208,V1,d09142021,CDRCj,final_decisions,2.0,1.0,64.0,0.0,1.0,29.0,10.0,Klinb1.jpg,Vinb1n.jpg,41.0,70.0,0.0,10.0,29.0,0.0,0.863,0.07145585469645424,-29.0,-0.7090371633481303,0.663292830228896,-1.372329993577026
209,V1,d09142021,CDRCj,final_decisions,2.0,1.0,65.0,0.0,1.0,29.0,11.0,Klinb1.jpg,Clifa1.jpg,41.0,63.0,0.0,11.0,29.0,0.0,0.7140000000000001,-0.6270210557213566,-22.0,-0.7090371633481303,0.3320407628137517,-1.041077926161882
210,V1,d09142021,CDRCj,final_decisions,2.0,1.0,66.0,0.0,1.0,48.0,45.0,Maca1n.jpg,Lasc1n.jpg,67.0,67.0,1.0,48.0,45.0,1.0,0.79,-0.27075095376327835,0.0,0.5213276584795484,0.5213276584795484,0.0
211,V1,d09142021,CDRCj,final_decisions,2.0,0.0,67.0,1.0,1.0,68.0,31.0,Mondb1.jpg,Picac1.jpg,62.0,68.0,1.0,68.0,31.0,1.0,1.078,1.0793252220778593,-6.0,0.2847190388973025,0.5686493823959976,-0.28393034349869506
212,V1,d09142021,CDRCj,final_decisions,2.0,1.0,68.0,0.0,1.0,37.0,10.0,Deka1n.jpg,Vinb1n.jpg,40.0,70.0,1.0,37.0,10.0,1.0,1.097,1.1683927475673783,-30.0,-0.7563588872645794,0.663292830228896,-1.4196517174934753
213,V1,d09142021,CDRCj,final_decisions,2.0,1.0,69.0,1.0,1.0,44.0,55.0,Mackb1.jpg,Clia1n.jpg,42.0,57.0,1.0,44.0,55.0,1.0,0.747,-0.4723248272395595,-15.0,-0.6617154394316811,0.04811041931505662,-0.7098258587467378
214,V1,d09142021,CDRCj,final_decisions,2.0,1.0,70.0,0.0,0.0,10.0,48.0,Vinb1n.jpg,Maca1n.jpg,70.0,67.0,0.0,48.0,10.0,1.0,0.875,0.12770902868983502,3.0,0.663292830228896,0.5213276584795484,0.14196517174934753
215,V1,d09142021,CDRCj,final_decisions,2.0,0.0,71.0,1.0,1.0,68.0,21.0,Mondb1.jpg,Kupkc1.jpg,62.0,67.0,1.0,68.0,21.0,1.0,0.701,-0.6879619942141858,-5.0,0.2847190388973025,0.5213276584795484,-0.2366086195822459
216,V1,d09142021,CDRCj,final_decisions,3.0,1.0,72.0,1.0,0.0,8.0,5.0,Picd1n.jpg,Pica1n.jpg,64.0,57.0,0.0,5.0,8.0,1.0,0.8,-0.22387330876879435,7.0,0.3793624867302009,0.04811041931505662,0.3312520674151443
217,V1,d09142021,CDRCj,final_decisions,3.0,0.0,73.0,0.0,1.0,47.0,26.0,Vina1n.jpg,Klid1n.jpg,71.0,58.0,1.0,47.0,26.0,1.0,0.6609999999999999,-0.8754725741921212,13.0,0.7106145541453451,0.0954321432315058,0.6151824109138393
218,V1,d09142021,CDRCj,final_decisions,3.0,0.0,74.0,0.0,1.0,47.0,69.0,Vina1n.jpg,Picad1.jpg,71.0,40.0,0.0,69.0,47.0,0.0,0.62,-1.0676709186695057,31.0,0.7106145541453451,-0.7563588872645794,1.4669734414099245
219,V1,d09142021,CDRCj,final_decisions,3.0,1.0,75.0,0.0,1.0,29.0,10.0,Klinb1.jpg,Vinb1n.jpg,41.0,70.0,0.0,10.0,29.0,0.0,1.361,2.4059625754217544,-29.0,-0.7090371633481303,0.663292830228896,-1.372329993577026
220,V1,d09142021,CDRCj,final_decisions,3.0,1.0,76.0,1.0,1.0,5.0,55.0,Pica1n.jpg,Clia1n.jpg,57.0,57.0,1.0,5.0,55.0,1.0,0.7190000000000001,-0.6035822332241146,0.0,0.04811041931505662,0.04811041931505662,0.0
221,V1,d09142021,CDRCj,final_decisions,3.0,0.0,77.0,1.0,1.0,68.0,31.0,Mondb1.jpg,Picac1.jpg,62.0,68.0,1.0,68.0,31.0,1.0,0.621,-1.0629831541700572,-6.0,0.2847190388973025,0.5686493823959976,-0.28393034349869506
222,V1,d09142021,CDRCj,final_decisions,3.0,0.0,78.0,1.0,0.0,31.0,63.0,Picac1.jpg,Lewia1.jpg,68.0,68.0,0.0,63.0,31.0,1.0,0.792,-0.2613754247643815,0.0,0.5686493823959976,0.5686493823959976,0.0
223,V1,d09142021,CDRCj,final_decisions,3.0,1.0,79.0,1.0,1.0,44.0,39.0,Mackb1.jpg,Kupb1n.jpg,42.0,61.0,1.0,44.0,39.0,1.0,0.62,-1.0676709186695057,-19.0,-0.6617154394316811,0.2373973149808533,-0.8991127544125345
224,V1,d09142021,CDRCj,final_decisions,3.0,0.0,80.0,1.0,1.0,42.0,31.0,Mackc1.jpg,Picac1.jpg,68.0,68.0,1.0,42.0,31.0,1.0,0.583,-1.2411182051490963,0.0,0.5686493823959976,0.5686493823959976,0.0
225,V1,d09142021,CDRCj,final_decisions,3.0,1.0,81.0,1.0,1.0,5.0,39.0,Pica1n.jpg,Kupb1n.jpg,57.0,61.0,1.0,5.0,39.0,1.0,0.64,-0.9739156286805376,-4.0,0.04811041931505662,0.2373973149808533,-0.1892868956657967
226,V1,d09142021,CDRCj,final_decisions,3.0,0.0,82.0,0.0,1.0,30.0,69.0,Kraa1n.jpg,Picad1.jpg,38.0,40.0,1.0,30.0,69.0,1.0,0.6679999999999999,-0.8426582226959825,-2.0,-0.8510023350974778,-0.7563588872645794,-0.09464344783289837
227,V1,d09142021,CDRCj,final_decisions,3.0,1.0,83.0,0.0,1.0,29.0,11.0,Klinb1.jpg,Clifa1.jpg,41.0,63.0,0.0,11.0,29.0,0.0,0.627,-1.0348565671733667,-22.0,-0.7090371633481303,0.3320407628137517,-1.041077926161882
228,V1,d09142021,CDRCj,final_decisions,3.0,0.0,84.0,1.0,1.0,68.0,21.0,Mondb1.jpg,Kupkc1.jpg,62.0,67.0,1.0,68.0,21.0,1.0,0.61,-1.1145485636639896,-5.0,0.2847190388973025,0.5213276584795484,-0.2366086195822459
229,V1,d09142021,CDRCj,final_decisions,3.0,0.0,85.0,0.0,0.0,46.0,56.0,Lewb1n.jpg,Clib1n.jpg,59.0,61.0,0.0,56.0,46.0,1.0,0.622,-1.0582953896706089,-2.0,0.142753867147955,0.2373973149808533,-0.09464344783289837
230,V1,d09142021,CDRCj,final_decisions,3.0,1.0,86.0,0.0,1.0,48.0,11.0,Maca1n.jpg,Clifa1.jpg,67.0,63.0,1.0,48.0,11.0,1.0,0.6459999999999999,-0.9457890416838473,4.0,0.5213276584795484,0.3320407628137517,0.1892868956657967
231,V1,d09142021,CDRCj,final_decisions,3.0,1.0,87.0,0.0,0.0,45.0,37.0,Lasc1n.jpg,Deka1n.jpg,67.0,40.0,0.0,37.0,45.0,1.0,0.71,-0.6457721137191502,27.0,0.5213276584795484,-0.7563588872645794,1.2776865457441278
232,V1,d09142021,CDRCj,final_decisions,3.0,0.0,88.0,1.0,0.0,53.0,63.0,Macc1n.jpg,Lewia1.jpg,63.0,68.0,0.0,63.0,53.0,1.0,0.657,-0.8942236321899149,-5.0,0.3320407628137517,0.5686493823959976,-0.2366086195822459
233,V1,d09142021,CDRCj,final_decisions,3.0,1.0,89.0,1.0,1.0,12.0,55.0,Klie1n.jpg,Clia1n.jpg,62.0,57.0,1.0,12.0,55.0,1.0,0.682,-0.7770295197037048,5.0,0.2847190388973025,0.04811041931505662,0.23660861958224594
234,V1,d09142021,CDRCj,final_decisions,3.0,1.0,90.0,0.0,1.0,37.0,10.0,Deka1n.jpg,Vinb1n.jpg,40.0,70.0,1.0,37.0,10.0,1.0,0.767,-0.3785695372505915,-30.0,-0.7563588872645794,0.663292830228896,-1.4196517174934753
235,V1,d09142021,CDRCj,final_decisions,3.0,0.0,91.0,1.0,0.0,53.0,68.0,Macc1n.jpg,Mondb1.jpg,63.0,62.0,0.0,68.0,53.0,1.0,0.69,-0.7395274037081182,1.0,0.3320407628137517,0.2847190388973025,0.047321723916449177
236,V1,d09142021,CDRCj,final_decisions,3.0,1.0,92.0,0.0,0.0,11.0,37.0,Clifa1.jpg,Deka1n.jpg,63.0,40.0,1.0,11.0,37.0,0.0,0.78,-0.31762859875776234,23.0,0.3320407628137517,-0.7563588872645794,1.0883996500783308
237,V1,d09142021,CDRCj,final_decisions,3.0,0.0,93.0,1.0,1.0,63.0,21.0,Lewia1.jpg,Kupkc1.jpg,68.0,67.0,1.0,63.0,21.0,1.0,1.12,1.276211331054692,1.0,0.5686493823959976,0.5213276584795484,0.047321723916449177
238,V1,d09142021,CDRCj,final_decisions,3.0,1.0,94.0,1.0,0.0,39.0,12.0,Kupb1n.jpg,Klie1n.jpg,61.0,62.0,0.0,12.0,39.0,1.0,1.0659999999999998,1.0230720480844786,-1.0,0.2373973149808533,0.2847190388973025,-0.0473217239164492
239,V1,d09142021,CDRCj,final_decisions,3.0,1.0,95.0,0.0,0.0,10.0,48.0,Vinb1n.jpg,Maca1n.jpg,70.0,67.0,0.0,48.0,10.0,1.0,1.222,1.7543633099984275,3.0,0.663292830228896,0.5213276584795484,0.14196517174934753
240,V1,d09142021,CDRCj,final_decisions,3.0,0.0,96.0,0.0,0.0,46.0,47.0,Lewb1n.jpg,Vina1n.jpg,59.0,71.0,0.0,47.0,46.0,1.0,0.971,0.5777344206368807,-12.0,0.142753867147955,0.7106145541453451,-0.5678606869973901
241,V1,d09142021,CDRCj,final_decisions,3.0,1.0,97.0,1.0,0.0,55.0,44.0,Clia1n.jpg,Mackb1.jpg,57.0,42.0,0.0,44.0,55.0,1.0,0.985,0.6433631236291584,15.0,0.04811041931505662,-0.6617154394316811,0.7098258587467378
242,V1,d09142021,CDRCj,final_decisions,3.0,0.0,98.0,0.0,1.0,56.0,69.0,Clib1n.jpg,Picad1.jpg,61.0,40.0,1.0,56.0,69.0,1.0,0.748,-0.4676370627401111,21.0,0.2373973149808533,-0.7563588872645794,0.9937562022454328
243,V1,d09142021,CDRCj,final_decisions,3.0,0.0,99.0,0.0,1.0,56.0,26.0,Clib1n.jpg,Klid1n.jpg,61.0,58.0,1.0,56.0,26.0,1.0,0.7759999999999999,-0.3363796567555559,3.0,0.2373973149808533,0.0954321432315058,0.14196517174934753
244,V1,d09142021,CDRCj,final_decisions,3.0,1.0,100.0,1.0,0.0,8.0,44.0,Picd1n.jpg,Mackb1.jpg,64.0,42.0,0.0,44.0,8.0,1.0,0.695,-0.7160885812108762,22.0,0.3793624867302009,-0.6617154394316811,1.041077926161882
245,V1,d09142021,CDRCj,final_decisions,3.0,1.0,101.0,0.0,0.0,45.0,29.0,Lasc1n.jpg,Klinb1.jpg,67.0,41.0,1.0,45.0,29.0,0.0,0.992,0.6761774751252971,26.0,0.5213276584795484,-0.7090371633481303,1.2303648218276786
246,V1,d09142021,CDRCj,final_decisions,3.0,0.0,102.0,1.0,1.0,42.0,21.0,Mackc1.jpg,Kupkc1.jpg,68.0,67.0,1.0,42.0,21.0,1.0,0.941,0.4371014856534288,1.0,0.5686493823959976,0.5213276584795484,0.047321723916449177
247,V1,d09142021,CDRCj,final_decisions,3.0,1.0,103.0,1.0,1.0,12.0,8.0,Klie1n.jpg,Picd1n.jpg,62.0,64.0,1.0,12.0,8.0,1.0,0.872,0.11364573519148982,-2.0,0.2847190388973025,0.3793624867302009,-0.09464344783289837
248,V1,d09142021,CDRCj,final_decisions,3.0,0.0,104.0,0.0,0.0,26.0,30.0,Klid1n.jpg,Kraa1n.jpg,58.0,38.0,0.0,30.0,26.0,1.0,0.848,0.0011393872047282593,20.0,0.0954321432315058,-0.8510023350974778,0.9464344783289836
249,V1,d09142021,CDRCj,final_decisions,3.0,0.0,105.0,0.0,0.0,46.0,30.0,Lewb1n.jpg,Kraa1n.jpg,59.0,38.0,0.0,30.0,46.0,1.0,0.687,-0.7535906972064629,21.0,0.142753867147955,-0.8510023350974778,0.9937562022454328
250,V1,d09142021,CDRCj,final_decisions,3.0,0.0,106.0,1.0,0.0,53.0,42.0,Macc1n.jpg,Mackc1.jpg,63.0,68.0,0.0,42.0,53.0,1.0,0.767,-0.3785695372505915,-5.0,0.3320407628137517,0.5686493823959976,-0.2366086195822459
251,V1,d09142021,CDRCj,final_decisions,3.0,1.0,107.0,0.0,1.0,48.0,45.0,Maca1n.jpg,Lasc1n.jpg,67.0,67.0,1.0,48.0,45.0,1.0,0.754,-0.4395104757434207,0.0,0.5213276584795484,0.5213276584795484,0.0
252,V1,d09142021,CDRCj,final_decisions,4.0,0.0,108.0,0.0,1.0,47.0,69.0,Vina1n.jpg,Picad1.jpg,71.0,40.0,1.0,47.0,69.0,1.0,0.8079999999999999,-0.1863711927732072,31.0,0.7106145541453451,-0.7563588872645794,1.4669734414099245
253,V1,d09142021,CDRCj,final_decisions,4.0,0.0,109.0,0.0,0.0,69.0,30.0,Picad1.jpg,Kraa1n.jpg,40.0,38.0,0.0,30.0,69.0,1.0,0.7440000000000001,-0.4863881207379047,2.0,-0.7563588872645794,-0.8510023350974778,0.09464344783289837
254,V1,d09142021,CDRCj,final_decisions,4.0,1.0,110.0,1.0,0.0,39.0,44.0,Kupb1n.jpg,Mackb1.jpg,61.0,42.0,0.0,44.0,39.0,1.0,0.728,-0.5613923527290791,19.0,0.2373973149808533,-0.6617154394316811,0.8991127544125345
255,V1,d09142021,CDRCj,final_decisions,4.0,1.0,111.0,0.0,1.0,48.0,11.0,Maca1n.jpg,Clifa1.jpg,67.0,63.0,1.0,48.0,11.0,1.0,0.7090000000000001,-0.6504598782185986,4.0,0.5213276584795484,0.3320407628137517,0.1892868956657967
256,V1,d09142021,CDRCj,final_decisions,4.0,1.0,112.0,0.0,0.0,10.0,37.0,Vinb1n.jpg,Deka1n.jpg,70.0,40.0,0.0,37.0,10.0,1.0,0.723,-0.5848311752263211,30.0,0.663292830228896,-0.7563588872645794,1.4196517174934753
257,V1,d09142021,CDRCj,final_decisions,4.0,0.0,113.0,1.0,0.0,31.0,63.0,Picac1.jpg,Lewia1.jpg,68.0,68.0,0.0,63.0,31.0,1.0,0.7440000000000001,-0.4863881207379047,0.0,0.5686493823959976,0.5686493823959976,0.0
258,V1,d09142021,CDRCj,final_decisions,4.0,1.0,114.0,0.0,1.0,37.0,11.0,Deka1n.jpg,Clifa1.jpg,40.0,63.0,1.0,37.0,11.0,1.0,0.951,0.4839791306479128,-23.0,-0.7563588872645794,0.3320407628137517,-1.0883996500783308
259,V1,d09142021,CDRCj,final_decisions,4.0,1.0,115.0,1.0,1.0,5.0,8.0,Pica1n.jpg,Picd1n.jpg,57.0,64.0,1.0,5.0,8.0,1.0,0.7440000000000001,-0.4863881207379047,-7.0,0.04811041931505662,0.3793624867302009,-0.3312520674151443
260,V1,d09142021,CDRCj,final_decisions,4.0,0.0,116.0,0.0,0.0,26.0,47.0,Klid1n.jpg,Vina1n.jpg,58.0,71.0,0.0,47.0,26.0,1.0,0.789,-0.2754387182627268,-13.0,0.0954321432315058,0.7106145541453451,-0.6151824109138393
261,V1,d09142021,CDRCj,final_decisions,4.0,1.0,117.0,0.0,1.0,37.0,45.0,Deka1n.jpg,Lasc1n.jpg,40.0,67.0,1.0,37.0,45.0,1.0,0.645,-0.9504768061832956,-27.0,-0.7563588872645794,0.5213276584795484,-1.2776865457441278
262,V1,d09142021,CDRCj,final_decisions,4.0,1.0,118.0,1.0,1.0,5.0,55.0,Pica1n.jpg,Clia1n.jpg,57.0,57.0,1.0,5.0,55.0,1.0,0.52,-1.536447368614345,0.0,0.04811041931505662,0.04811041931505662,0.0
263,V1,d09142021,CDRCj,final_decisions,4.0,0.0,119.0,1.0,1.0,63.0,53.0,Lewia1.jpg,Macc1n.jpg,68.0,63.0,1.0,63.0,53.0,1.0,0.581,-1.2504937341479931,5.0,0.5686493823959976,0.3320407628137517,0.2366086195822459
264,V1,d09142021,CDRCj,final_decisions,4.0,1.0,120.0,1.0,1.0,44.0,55.0,Mackb1.jpg,Clia1n.jpg,42.0,57.0,1.0,44.0,55.0,1.0,0.679,-0.79109281320205,-15.0,-0.6617154394316811,0.04811041931505662,-0.7098258587467378
265,V1,d09142021,CDRCj,final_decisions,4.0,1.0,121.0,0.0,0.0,10.0,48.0,Vinb1n.jpg,Maca1n.jpg,70.0,67.0,0.0,48.0,10.0,1.0,0.9,0.24490314117604495,3.0,0.663292830228896,0.5213276584795484,0.14196517174934753
266,V1,d09142021,CDRCj,final_decisions,4.0,1.0,122.0,1.0,1.0,5.0,39.0,Pica1n.jpg,Kupb1n.jpg,57.0,61.0,1.0,5.0,39.0,1.0,0.5529999999999999,-1.3817511401325475,-4.0,0.04811041931505662,0.2373973149808533,-0.1892868956657967
267,V1,d09142021,CDRCj,final_decisions,4.0,0.0,123.0,1.0,1.0,63.0,21.0,Lewia1.jpg,Kupkc1.jpg,68.0,67.0,1.0,63.0,21.0,1.0,0.455,-1.8411520610784904,1.0,0.5686493823959976,0.5213276584795484,0.047321723916449177
268,V1,d09142021,CDRCj,final_decisions,4.0,0.0,124.0,1.0,0.0,53.0,68.0,Macc1n.jpg,Mondb1.jpg,63.0,62.0,0.0,68.0,53.0,1.0,0.71,-0.6457721137191502,1.0,0.3320407628137517,0.2847190388973025,0.047321723916449177
269,V1,d09142021,CDRCj,final_decisions,4.0,1.0,125.0,1.0,1.0,12.0,55.0,Klie1n.jpg,Clia1n.jpg,62.0,57.0,1.0,12.0,55.0,1.0,0.679,-0.79109281320205,5.0,0.2847190388973025,0.04811041931505662,0.23660861958224594
270,V1,d09142021,CDRCj,final_decisions,4.0,1.0,126.0,0.0,0.0,45.0,29.0,Lasc1n.jpg,Klinb1.jpg,67.0,41.0,0.0,29.0,45.0,1.0,0.932,0.39491160515839374,26.0,0.5213276584795484,-0.7090371633481303,1.2303648218276786
271,V1,d09142021,CDRCj,final_decisions,4.0,1.0,127.0,1.0,0.0,39.0,12.0,Kupb1n.jpg,Klie1n.jpg,61.0,62.0,0.0,12.0,39.0,1.0,0.9059999999999999,0.2730297281727353,-1.0,0.2373973149808533,0.2847190388973025,-0.0473217239164492
272,V1,d09142021,CDRCj,final_decisions,4.0,0.0,128.0,1.0,1.0,42.0,21.0,Mackc1.jpg,Kupkc1.jpg,68.0,67.0,1.0,42.0,21.0,1.0,0.478,-1.7333334775911775,1.0,0.5686493823959976,0.5213276584795484,0.047321723916449177
273,V1,d09142021,CDRCj,final_decisions,4.0,0.0,129.0,1.0,1.0,42.0,31.0,Mackc1.jpg,Picac1.jpg,68.0,68.0,1.0,42.0,31.0,1.0,0.486,-1.6958313615955904,0.0,0.5686493823959976,0.5686493823959976,0.0
274,V1,d09142021,CDRCj,final_decisions,4.0,1.0,130.0,0.0,0.0,11.0,29.0,Clifa1.jpg,Klinb1.jpg,63.0,41.0,1.0,11.0,29.0,0.0,0.615,-1.0911097411667476,22.0,0.3320407628137517,-0.7090371633481303,1.041077926161882
275,V1,d09142021,CDRCj,final_decisions,4.0,0.0,131.0,0.0,1.0,30.0,26.0,Kraa1n.jpg,Klid1n.jpg,38.0,58.0,1.0,30.0,26.0,1.0,0.58,-1.2551814986474414,-20.0,-0.8510023350974778,0.0954321432315058,-0.9464344783289836
276,V1,d09142021,CDRCj,final_decisions,4.0,1.0,132.0,1.0,0.0,8.0,44.0,Picd1n.jpg,Mackb1.jpg,64.0,42.0,0.0,44.0,8.0,1.0,0.608,-1.1239240926628864,22.0,0.3793624867302009,-0.6617154394316811,1.041077926161882
277,V1,d09142021,CDRCj,final_decisions,4.0,0.0,133.0,0.0,1.0,56.0,69.0,Clib1n.jpg,Picad1.jpg,61.0,40.0,1.0,56.0,69.0,1.0,0.647,-0.9411012771843988,21.0,0.2373973149808533,-0.7563588872645794,0.9937562022454328
278,V1,d09142021,CDRCj,final_decisions,4.0,0.0,134.0,0.0,0.0,46.0,56.0,Lewb1n.jpg,Clib1n.jpg,59.0,61.0,0.0,56.0,46.0,1.0,0.639,-0.978603393179986,-2.0,0.142753867147955,0.2373973149808533,-0.09464344783289837
279,V1,d09142021,CDRCj,final_decisions,4.0,1.0,135.0,0.0,1.0,48.0,45.0,Maca1n.jpg,Lasc1n.jpg,67.0,67.0,1.0,48.0,45.0,1.0,0.758,-0.4207594177456271,0.0,0.5213276584795484,0.5213276584795484,0.0
280,V1,d09142021,CDRCj,final_decisions,4.0,0.0,136.0,1.0,0.0,31.0,68.0,Picac1.jpg,Mondb1.jpg,68.0,62.0,0.0,68.0,31.0,1.0,0.7,-0.6926497587136342,6.0,0.5686493823959976,0.2847190388973025,0.28393034349869506
281,V1,d09142021,CDRCj,final_decisions,4.0,0.0,137.0,1.0,1.0,68.0,21.0,Mondb1.jpg,Kupkc1.jpg,62.0,67.0,1.0,68.0,21.0,1.0,0.636,-0.9926666866783312,-5.0,0.2847190388973025,0.5213276584795484,-0.2366086195822459
282,V1,d09142021,CDRCj,final_decisions,4.0,1.0,138.0,0.0,1.0,29.0,10.0,Klinb1.jpg,Vinb1n.jpg,41.0,70.0,0.0,10.0,29.0,0.0,1.088,1.1262028670723434,-29.0,-0.7090371633481303,0.663292830228896,-1.372329993577026
283,V1,d09142021,CDRCj,final_decisions,4.0,0.0,139.0,1.0,0.0,53.0,42.0,Macc1n.jpg,Mackc1.jpg,63.0,68.0,0.0,42.0,53.0,1.0,0.7929999999999999,-0.2566876602649331,-5.0,0.3320407628137517,0.5686493823959976,-0.2366086195822459
284,V1,d09142021,CDRCj,final_decisions,4.0,0.0,140.0,0.0,1.0,56.0,26.0,Clib1n.jpg,Klid1n.jpg,61.0,58.0,0.0,26.0,56.0,0.0,1.225,1.7684266034967735,3.0,0.2373973149808533,0.0954321432315058,0.14196517174934753
285,V1,d09142021,CDRCj,final_decisions,4.0,0.0,141.0,0.0,1.0,47.0,46.0,Vina1n.jpg,Lewb1n.jpg,71.0,59.0,1.0,47.0,46.0,1.0,0.755,-0.43482271124397226,12.0,0.7106145541453451,0.142753867147955,0.5678606869973901
286,V1,d09142021,CDRCj,final_decisions,4.0,0.0,142.0,0.0,0.0,46.0,30.0,Lewb1n.jpg,Kraa1n.jpg,59.0,38.0,0.0,30.0,46.0,1.0,0.5710000000000001,-1.297371379142477,21.0,0.142753867147955,-0.8510023350974778,0.9937562022454328
287,V1,d09142021,CDRCj,final_decisions,4.0,1.0,143.0,1.0,0.0,8.0,12.0,Picd1n.jpg,Klie1n.jpg,64.0,62.0,0.0,12.0,8.0,1.0,0.655,-0.9035991611888116,2.0,0.3793624867302009,0.2847190388973025,0.09464344783289837
288,V1,d09172021,S5lJ6,final_decisions,1.0,0.0,0.0,1.0,0.0,50.0,12.0,Klic1n.jpg,Klie1n.jpg,32.0,59.0,1.0,50.0,12.0,0.0,1.485,1.892132290985904,-27.0,-0.6516221833541379,0.7211059532306517,-1.3727281365847896
289,V1,d09172021,S5lJ6,final_decisions,1.0,0.0,1.0,0.0,0.0,15.0,55.0,Lassc1.jpg,Clia1n.jpg,35.0,56.0,0.0,55.0,15.0,1.0,0.7120000000000001,-0.5193421341266939,-21.0,-0.499096834844717,0.5685806047212306,-1.0676774395659476
290,V1,d09172021,S5lJ6,final_decisions,1.0,1.0,2.0,0.0,0.0,36.0,4.0,Gustb1.jpg,Krasb1.jpg,43.0,32.0,1.0,36.0,4.0,0.0,1.338,1.4335465982413351,11.0,-0.09236257215292737,-0.6516221833541379,0.5592596112012106
291,V1,d09172021,S5lJ6,final_decisions,1.0,1.0,3.0,0.0,1.0,33.0,37.0,Kline1.jpg,Deka1n.jpg,55.0,31.0,1.0,33.0,37.0,1.0,0.985,0.33231700954179144,24.0,0.517738821884757,-0.7024639661906117,1.2202027880753683
292,V1,d09172021,S5lJ6,final_decisions,1.0,1.0,4.0,0.0,1.0,18.0,37.0,Krab1n.jpg,Deka1n.jpg,44.0,31.0,1.0,18.0,37.0,1.0,0.986,0.3354366401046797,13.0,-0.041520789316453685,-0.7024639661906117,0.6609431768741579
293,V1,d09172021,S5lJ6,final_decisions,1.0,1.0,5.0,1.0,0.0,66.0,6.0,Vinca1.jpg,Gusc1n.jpg,44.0,53.0,1.0,66.0,6.0,0.0,0.657,-0.6909218150855462,-9.0,-0.041520789316453685,0.4160552562118096,-0.4575760455282633
294,V1,d09172021,S5lJ6,final_decisions,1.0,1.0,6.0,0.0,0.0,37.0,4.0,Deka1n.jpg,Krasb1.jpg,31.0,32.0,1.0,37.0,4.0,0.0,1.014,0.4227862958655501,-1.0,-0.7024639661906117,-0.6516221833541379,-0.05084178283647367
295,V1,d09172021,S5lJ6,final_decisions,1.0,1.0,7.0,1.0,1.0,6.0,63.0,Gusc1n.jpg,Lewia1.jpg,53.0,37.0,1.0,6.0,63.0,1.0,0.74,-0.4319924783658236,16.0,0.4160552562118096,-0.3974132691717696,0.8134685253835792
296,V1,d09172021,S5lJ6,final_decisions,1.0,1.0,8.0,1.0,1.0,53.0,43.0,Macc1n.jpg,Clifb1.jpg,38.0,35.0,1.0,53.0,43.0,1.0,0.731,-0.4600691534318177,3.0,-0.34657148633529583,-0.499096834844717,0.15252534850942112
297,V1,d09172021,S5lJ6,final_decisions,1.0,1.0,9.0,0.0,0.0,36.0,18.0,Gustb1.jpg,Krab1n.jpg,43.0,44.0,1.0,36.0,18.0,0.0,0.868,-0.032679766316130815,-1.0,-0.09236257215292737,-0.041520789316453685,-0.0508417828364737
298,V1,d09172021,S5lJ6,final_decisions,1.0,0.0,10.0,1.0,0.0,64.0,38.0,Vincb1.jpg,Krasa1.jpg,40.0,36.0,0.0,38.0,64.0,1.0,1.7069999999999999,2.5846902759470898,4.0,-0.2448879206623485,-0.4482550520082432,0.2033671313458948
299,V1,d09172021,S5lJ6,final_decisions,1.0,1.0,11.0,1.0,0.0,66.0,53.0,Vinca1.jpg,Macc1n.jpg,44.0,38.0,0.0,53.0,66.0,1.0,1.321,1.380512878672235,6.0,-0.041520789316453685,-0.34657148633529583,0.3050506970188421
300,V1,d09172021,S5lJ6,final_decisions,1.0,0.0,12.0,0.0,1.0,7.0,15.0,Macb1n.jpg,Lassc1.jpg,46.0,35.0,1.0,7.0,15.0,1.0,1.854,3.0432759686916597,11.0,0.0601627763564937,-0.499096834844717,0.5592596112012107
301,V1,d09172021,S5lJ6,final_decisions,1.0,0.0,13.0,0.0,1.0,51.0,32.0,Lewic1.jpg,Kupkb1.jpg,50.0,31.0,0.0,32.0,51.0,0.0,1.545,2.0793101247591967,19.0,0.2635299077023885,-0.7024639661906117,0.9659938738930002
302,V1,d09172021,S5lJ6,final_decisions,1.0,1.0,14.0,1.0,1.0,57.0,63.0,Lassa1.jpg,Lewia1.jpg,58.0,37.0,1.0,57.0,63.0,1.0,0.836,-0.1325079443285541,21.0,0.6702641703941781,-0.3974132691717696,1.0676774395659476
303,V1,d09172021,S5lJ6,final_decisions,1.0,1.0,15.0,1.0,1.0,57.0,66.0,Lassa1.jpg,Vinca1.jpg,58.0,44.0,1.0,57.0,66.0,1.0,0.474,-1.2618142080940915,14.0,0.6702641703941781,-0.041520789316453685,0.7117849597106317
304,V1,d09172021,S5lJ6,final_decisions,1.0,0.0,16.0,1.0,1.0,12.0,23.0,Klie1n.jpg,Rohlb1.jpg,59.0,33.0,1.0,12.0,23.0,1.0,1.083,0.6380408047048374,26.0,0.7211059532306517,-0.6007804005176643,1.3218863537483159
305,V1,d09172021,S5lJ6,final_decisions,1.0,1.0,17.0,0.0,1.0,18.0,19.0,Krab1n.jpg,Picc1n.jpg,44.0,33.0,1.0,18.0,19.0,1.0,0.965,0.2699243982840269,11.0,-0.041520789316453685,-0.6007804005176643,0.5592596112012107
306,V1,d09172021,S5lJ6,final_decisions,1.0,0.0,18.0,0.0,0.0,32.0,7.0,Kupkb1.jpg,Macb1n.jpg,31.0,46.0,1.0,32.0,7.0,0.0,0.698,-0.5630169620071291,-15.0,-0.7024639661906117,0.0601627763564937,-0.7626267425471054
307,V1,d09172021,S5lJ6,final_decisions,1.0,0.0,19.0,1.0,1.0,30.0,64.0,Kraa1n.jpg,Vincb1.jpg,31.0,40.0,1.0,30.0,64.0,1.0,0.7290000000000001,-0.4663084145575941,-9.0,-0.7024639661906117,-0.2448879206623485,-0.4575760455282633
308,V1,d09172021,S5lJ6,final_decisions,1.0,0.0,20.0,0.0,0.0,29.0,55.0,Klinb1.jpg,Clia1n.jpg,60.0,56.0,0.0,55.0,29.0,1.0,1.186,0.9593627526823244,4.0,0.7719477360671254,0.5685806047212306,0.2033671313458948
309,V1,d09172021,S5lJ6,final_decisions,1.0,0.0,21.0,0.0,1.0,55.0,32.0,Clia1n.jpg,Kupkb1.jpg,56.0,31.0,1.0,55.0,32.0,1.0,0.97,0.2855225510984681,25.0,0.5685806047212306,-0.7024639661906117,1.2710445709118423
310,V1,d09172021,S5lJ6,final_decisions,1.0,0.0,22.0,1.0,0.0,50.0,30.0,Klic1n.jpg,Kraa1n.jpg,32.0,31.0,1.0,50.0,30.0,0.0,0.815,-0.19802018614920688,1.0,-0.6516221833541379,-0.7024639661906117,0.05084178283647367
311,V1,d09172021,S5lJ6,final_decisions,1.0,1.0,23.0,1.0,0.0,63.0,53.0,Lewia1.jpg,Macc1n.jpg,37.0,38.0,0.0,53.0,63.0,1.0,0.966,0.27304402884691514,-1.0,-0.3974132691717696,-0.34657148633529583,-0.050841782836473726
312,V1,d09172021,S5lJ6,final_decisions,1.0,1.0,24.0,0.0,1.0,33.0,36.0,Kline1.jpg,Gustb1.jpg,55.0,43.0,0.0,36.0,33.0,0.0,1.159,0.8751327274843427,12.0,0.517738821884757,-0.09236257215292737,0.6101013940376844
313,V1,d09172021,S5lJ6,final_decisions,1.0,0.0,25.0,1.0,1.0,12.0,64.0,Klie1n.jpg,Vincb1.jpg,59.0,40.0,1.0,12.0,64.0,1.0,0.8340000000000001,-0.13874720545433053,19.0,0.7211059532306517,-0.2448879206623485,0.9659938738930002
314,V1,d09172021,S5lJ6,final_decisions,1.0,1.0,26.0,1.0,1.0,6.0,43.0,Gusc1n.jpg,Clifb1.jpg,53.0,35.0,1.0,6.0,43.0,1.0,0.59,-0.8999370627990574,18.0,0.4160552562118096,-0.499096834844717,0.9151520910565264
315,V1,d09172021,S5lJ6,final_decisions,1.0,0.0,27.0,1.0,1.0,38.0,23.0,Krasa1.jpg,Rohlb1.jpg,36.0,33.0,1.0,38.0,23.0,1.0,0.9690000000000001,0.2824029205355798,3.0,-0.4482550520082432,-0.6007804005176643,0.15252534850942112
316,V1,d09172021,S5lJ6,final_decisions,1.0,0.0,28.0,0.0,1.0,51.0,15.0,Lewic1.jpg,Lassc1.jpg,50.0,35.0,0.0,15.0,51.0,0.0,2.137,3.9261314179890263,15.0,0.2635299077023885,-0.499096834844717,0.7626267425471054
317,V1,d09172021,S5lJ6,final_decisions,1.0,1.0,29.0,0.0,1.0,33.0,19.0,Kline1.jpg,Picc1n.jpg,55.0,33.0,0.0,19.0,33.0,0.0,1.28,1.252608025593818,22.0,0.517738821884757,-0.6007804005176643,1.1185192224024214
318,V1,d09172021,S5lJ6,final_decisions,1.0,0.0,30.0,0.0,0.0,29.0,7.0,Klinb1.jpg,Macb1n.jpg,60.0,46.0,1.0,29.0,7.0,0.0,1.462,1.820380788039475,14.0,0.7719477360671254,0.0601627763564937,0.7117849597106317
319,V1,d09172021,S5lJ6,final_decisions,1.0,0.0,31.0,1.0,0.0,50.0,38.0,Klic1n.jpg,Krasa1.jpg,32.0,36.0,1.0,50.0,38.0,0.0,0.7829999999999999,-0.2978483641616298,-4.0,-0.6516221833541379,-0.4482550520082432,-0.2033671313458948
320,V1,d09172021,S5lJ6,final_decisions,1.0,0.0,32.0,0.0,1.0,51.0,29.0,Lewic1.jpg,Klinb1.jpg,50.0,60.0,0.0,29.0,51.0,0.0,1.219,1.0623105612576365,-10.0,0.2635299077023885,0.7719477360671254,-0.5084178283647369
321,V1,d09172021,S5lJ6,final_decisions,1.0,1.0,33.0,0.0,0.0,19.0,4.0,Picc1n.jpg,Krasb1.jpg,33.0,32.0,1.0,19.0,4.0,0.0,0.711,-0.5224617646895822,1.0,-0.6007804005176643,-0.6516221833541379,0.05084178283647367
322,V1,d09172021,S5lJ6,final_decisions,1.0,1.0,34.0,1.0,0.0,43.0,57.0,Clifb1.jpg,Lassa1.jpg,35.0,58.0,0.0,57.0,43.0,1.0,0.743,-0.4226335866771589,-23.0,-0.499096834844717,0.6702641703941781,-1.169361005238895
323,V1,d09172021,S5lJ6,final_decisions,1.0,0.0,35.0,1.0,1.0,30.0,23.0,Kraa1n.jpg,Rohlb1.jpg,31.0,33.0,1.0,30.0,23.0,1.0,1.0959999999999999,0.6785960020223847,-2.0,-0.7024639661906117,-0.6007804005176643,-0.10168356567294734
324,V1,d09172021,S5lJ6,final_decisions,2.0,0.0,36.0,1.0,0.0,50.0,30.0,Klic1n.jpg,Kraa1n.jpg,32.0,31.0,,,,,,,1.0,-0.6516221833541379,-0.7024639661906117,0.05084178283647367
325,V1,d09172021,S5lJ6,final_decisions,2.0,1.0,37.0,0.0,0.0,19.0,4.0,Picc1n.jpg,Krasb1.jpg,33.0,32.0,1.0,19.0,4.0,0.0,0.953,0.2324888315293682,1.0,-0.6007804005176643,-0.6516221833541379,0.05084178283647367
326,V1,d09172021,S5lJ6,final_decisions,2.0,0.0,38.0,0.0,0.0,32.0,51.0,Kupkb1.jpg,Lewic1.jpg,31.0,50.0,1.0,32.0,51.0,0.0,0.894,0.04843062831896311,-19.0,-0.7024639661906117,0.2635299077023885,-0.9659938738930002
327,V1,d09172021,S5lJ6,final_decisions,2.0,1.0,39.0,0.0,1.0,4.0,37.0,Krasb1.jpg,Deka1n.jpg,32.0,31.0,0.0,37.0,4.0,0.0,0.62,-0.8063481459124106,1.0,-0.6516221833541379,-0.7024639661906117,0.05084178283647367
328,V1,d09172021,S5lJ6,final_decisions,2.0,1.0,40.0,0.0,1.0,18.0,37.0,Krab1n.jpg,Deka1n.jpg,44.0,31.0,0.0,37.0,18.0,0.0,0.521,-1.1151915716383447,13.0,-0.041520789316453685,-0.7024639661906117,0.6609431768741579
329,V1,d09172021,S5lJ6,final_decisions,2.0,1.0,41.0,1.0,0.0,66.0,6.0,Vinca1.jpg,Gusc1n.jpg,44.0,53.0,0.0,6.0,66.0,1.0,0.87,-0.026440505190354357,-9.0,-0.041520789316453685,0.4160552562118096,-0.4575760455282633
330,V1,d09172021,S5lJ6,final_decisions,2.0,0.0,42.0,0.0,1.0,55.0,29.0,Clia1n.jpg,Klinb1.jpg,56.0,60.0,0.0,29.0,55.0,0.0,0.878,-0.0014834606872485322,-4.0,0.5685806047212306,0.7719477360671254,-0.2033671313458948
331,V1,d09172021,S5lJ6,final_decisions,2.0,0.0,43.0,0.0,1.0,51.0,15.0,Lewic1.jpg,Lassc1.jpg,50.0,35.0,0.0,15.0,51.0,0.0,0.556,-1.0060045019372568,15.0,0.2635299077023885,-0.499096834844717,0.7626267425471054
332,V1,d09172021,S5lJ6,final_decisions,2.0,0.0,44.0,1.0,0.0,23.0,38.0,Rohlb1.jpg,Krasa1.jpg,33.0,36.0,0.0,38.0,23.0,1.0,0.597,-0.8780996488588397,-3.0,-0.6007804005176643,-0.4482550520082432,-0.15252534850942112
333,V1,d09172021,S5lJ6,final_decisions,2.0,0.0,45.0,0.0,0.0,29.0,51.0,Klinb1.jpg,Lewic1.jpg,60.0,50.0,1.0,29.0,51.0,0.0,0.6829999999999999,-0.6098114204504522,10.0,0.7719477360671254,0.2635299077023885,0.5084178283647369
334,V1,d09172021,S5lJ6,final_decisions,2.0,0.0,46.0,0.0,1.0,55.0,32.0,Clia1n.jpg,Kupkb1.jpg,56.0,31.0,1.0,55.0,32.0,1.0,1.101,0.6941941548368256,25.0,0.5685806047212306,-0.7024639661906117,1.2710445709118423
335,V1,d09172021,S5lJ6,final_decisions,2.0,1.0,47.0,0.0,1.0,18.0,19.0,Krab1n.jpg,Picc1n.jpg,44.0,33.0,0.0,19.0,18.0,0.0,0.893,0.04531099775607488,11.0,-0.041520789316453685,-0.6007804005176643,0.5592596112012107
336,V1,d09172021,S5lJ6,final_decisions,2.0,0.0,48.0,1.0,1.0,38.0,64.0,Krasa1.jpg,Vincb1.jpg,36.0,40.0,1.0,38.0,64.0,1.0,0.609,-0.8406640821041811,-4.0,-0.4482550520082432,-0.2448879206623485,-0.2033671313458948
337,V1,d09172021,S5lJ6,final_decisions,2.0,1.0,49.0,0.0,1.0,18.0,36.0,Krab1n.jpg,Gustb1.jpg,44.0,43.0,0.0,36.0,18.0,0.0,0.8170000000000001,-0.1917809250234304,1.0,-0.041520789316453685,-0.09236257215292737,0.0508417828364737
338,V1,d09172021,S5lJ6,final_decisions,2.0,0.0,50.0,0.0,0.0,15.0,7.0,Lassc1.jpg,Macb1n.jpg,35.0,46.0,1.0,15.0,7.0,0.0,0.589,-0.9030566933619456,-11.0,-0.499096834844717,0.0601627763564937,-0.5592596112012107
339,V1,d09172021,S5lJ6,final_decisions,2.0,1.0,51.0,1.0,1.0,57.0,43.0,Lassa1.jpg,Clifb1.jpg,58.0,35.0,1.0,57.0,43.0,1.0,0.511,-1.1463878772672271,23.0,0.6702641703941781,-0.499096834844717,1.169361005238895
340,V1,d09172021,S5lJ6,final_decisions,2.0,1.0,52.0,1.0,1.0,57.0,63.0,Lassa1.jpg,Lewia1.jpg,58.0,37.0,1.0,57.0,63.0,1.0,0.5539999999999999,-1.0122437630630332,21.0,0.6702641703941781,-0.3974132691717696,1.0676774395659476
341,V1,d09172021,S5lJ6,final_decisions,2.0,0.0,53.0,1.0,1.0,12.0,50.0,Klie1n.jpg,Klic1n.jpg,59.0,32.0,1.0,12.0,50.0,1.0,0.807,-0.22297723065231234,27.0,0.7211059532306517,-0.6516221833541379,1.3727281365847896
342,V1,d09172021,S5lJ6,final_decisions,2.0,0.0,54.0,0.0,1.0,55.0,15.0,Clia1n.jpg,Lassc1.jpg,56.0,35.0,0.0,15.0,55.0,0.0,0.682,-0.6129310510133404,21.0,0.5685806047212306,-0.499096834844717,1.0676774395659476
343,V1,d09172021,S5lJ6,final_decisions,2.0,1.0,55.0,1.0,0.0,63.0,53.0,Lewia1.jpg,Macc1n.jpg,37.0,38.0,0.0,53.0,63.0,1.0,0.792,-0.26977168909563576,-1.0,-0.3974132691717696,-0.34657148633529583,-0.050841782836473726
344,V1,d09172021,S5lJ6,final_decisions,2.0,0.0,56.0,1.0,0.0,50.0,38.0,Klic1n.jpg,Krasa1.jpg,32.0,36.0,1.0,50.0,38.0,0.0,0.792,-0.26977168909563576,-4.0,-0.6516221833541379,-0.4482550520082432,-0.2033671313458948
345,V1,d09172021,S5lJ6,final_decisions,2.0,0.0,57.0,1.0,1.0,30.0,64.0,Kraa1n.jpg,Vincb1.jpg,31.0,40.0,1.0,30.0,64.0,1.0,0.9079999999999999,0.09210545619939828,-9.0,-0.7024639661906117,-0.2448879206623485,-0.4575760455282633
346,V1,d09172021,S5lJ6,final_decisions,2.0,0.0,58.0,1.0,1.0,30.0,23.0,Kraa1n.jpg,Rohlb1.jpg,31.0,33.0,1.0,30.0,23.0,1.0,0.5379999999999999,-1.062157852069245,-2.0,-0.7024639661906117,-0.6007804005176643,-0.10168356567294734
347,V1,d09172021,S5lJ6,final_decisions,2.0,1.0,59.0,1.0,1.0,6.0,63.0,Gusc1n.jpg,Lewia1.jpg,53.0,37.0,1.0,6.0,63.0,1.0,0.608,-0.8437837126670693,16.0,0.4160552562118096,-0.3974132691717696,0.8134685253835792
348,V1,d09172021,S5lJ6,final_decisions,2.0,0.0,60.0,1.0,1.0,12.0,23.0,Klie1n.jpg,Rohlb1.jpg,59.0,33.0,1.0,12.0,23.0,1.0,0.735,-0.4475906311802647,26.0,0.7211059532306517,-0.6007804005176643,1.3218863537483159
349,V1,d09172021,S5lJ6,final_decisions,2.0,1.0,61.0,1.0,1.0,53.0,66.0,Macc1n.jpg,Vinca1.jpg,38.0,44.0,1.0,53.0,66.0,1.0,0.7609999999999999,-0.3664802365451708,-6.0,-0.34657148633529583,-0.041520789316453685,-0.3050506970188421
350,V1,d09172021,S5lJ6,final_decisions,2.0,1.0,62.0,1.0,0.0,66.0,57.0,Vinca1.jpg,Lassa1.jpg,44.0,58.0,0.0,57.0,66.0,1.0,0.599,-0.8718603877330633,-14.0,-0.041520789316453685,0.6702641703941781,-0.7117849597106317
351,V1,d09172021,S5lJ6,final_decisions,2.0,1.0,63.0,0.0,0.0,36.0,33.0,Gustb1.jpg,Kline1.jpg,43.0,55.0,0.0,33.0,36.0,1.0,0.9179999999999999,0.12330176182828055,-12.0,-0.09236257215292737,0.517738821884757,-0.6101013940376844
352,V1,d09172021,S5lJ6,final_decisions,2.0,0.0,64.0,0.0,1.0,7.0,29.0,Macb1n.jpg,Klinb1.jpg,46.0,60.0,0.0,29.0,7.0,0.0,0.996,0.36663294573356203,-14.0,0.0601627763564937,0.7719477360671254,-0.7117849597106317
353,V1,d09172021,S5lJ6,final_decisions,2.0,0.0,65.0,1.0,0.0,64.0,12.0,Vincb1.jpg,Klie1n.jpg,40.0,59.0,0.0,12.0,64.0,1.0,0.961,0.257445876032474,-19.0,-0.2448879206623485,0.7211059532306517,-0.9659938738930002
354,V1,d09172021,S5lJ6,final_decisions,2.0,1.0,66.0,1.0,1.0,6.0,43.0,Gusc1n.jpg,Clifb1.jpg,53.0,35.0,1.0,6.0,43.0,1.0,0.525,-1.1027130493867918,18.0,0.4160552562118096,-0.499096834844717,0.9151520910565264
355,V1,d09172021,S5lJ6,final_decisions,2.0,0.0,67.0,0.0,0.0,32.0,7.0,Kupkb1.jpg,Macb1n.jpg,31.0,46.0,0.0,7.0,32.0,1.0,0.7340000000000001,-0.4507102617431529,-15.0,-0.7024639661906117,0.0601627763564937,-0.7626267425471054
356,V1,d09172021,S5lJ6,final_decisions,2.0,1.0,68.0,0.0,1.0,4.0,36.0,Krasb1.jpg,Gustb1.jpg,32.0,43.0,0.0,36.0,4.0,0.0,0.6859999999999999,-0.6004525287617876,-11.0,-0.6516221833541379,-0.09236257215292737,-0.5592596112012106
357,V1,d09172021,S5lJ6,final_decisions,2.0,1.0,69.0,1.0,0.0,43.0,53.0,Clifb1.jpg,Macc1n.jpg,35.0,38.0,0.0,53.0,43.0,1.0,0.833,-0.14186683601721878,-3.0,-0.499096834844717,-0.34657148633529583,-0.15252534850942112
358,V1,d09172021,S5lJ6,final_decisions,2.0,1.0,70.0,0.0,0.0,19.0,33.0,Picc1n.jpg,Kline1.jpg,33.0,55.0,0.0,33.0,19.0,1.0,0.44,-1.367881647232291,-22.0,-0.6007804005176643,0.517738821884757,-1.1185192224024214
359,V1,d09172021,S5lJ6,final_decisions,2.0,1.0,71.0,0.0,0.0,37.0,33.0,Deka1n.jpg,Kline1.jpg,31.0,55.0,0.0,33.0,37.0,1.0,0.627,-0.7845107319721929,-24.0,-0.7024639661906117,0.517738821884757,-1.2202027880753683
360,V1,d09172021,S5lJ6,final_decisions,3.0,0.0,72.0,0.0,0.0,32.0,55.0,Kupkb1.jpg,Clia1n.jpg,31.0,56.0,0.0,55.0,32.0,1.0,1.296,1.3025221146000296,-25.0,-0.7024639661906117,0.5685806047212306,-1.2710445709118423
361,V1,d09172021,S5lJ6,final_decisions,3.0,0.0,73.0,1.0,1.0,12.0,64.0,Klie1n.jpg,Vincb1.jpg,59.0,40.0,1.0,12.0,64.0,1.0,0.596,-0.881219279421728,19.0,0.7211059532306517,-0.2448879206623485,0.9659938738930002
362,V1,d09172021,S5lJ6,final_decisions,3.0,1.0,74.0,1.0,1.0,6.0,63.0,Gusc1n.jpg,Lewia1.jpg,53.0,37.0,1.0,6.0,63.0,1.0,0.556,-1.0060045019372568,16.0,0.4160552562118096,-0.3974132691717696,0.8134685253835792
363,V1,d09172021,S5lJ6,final_decisions,3.0,0.0,75.0,0.0,1.0,7.0,32.0,Macb1n.jpg,Kupkb1.jpg,46.0,31.0,1.0,7.0,32.0,1.0,1.262,1.1964546754618297,15.0,0.0601627763564937,-0.7024639661906117,0.7626267425471054
364,V1,d09172021,S5lJ6,final_decisions,3.0,0.0,76.0,0.0,0.0,29.0,55.0,Klinb1.jpg,Clia1n.jpg,60.0,56.0,1.0,29.0,55.0,0.0,0.6970000000000001,-0.5661365925700174,4.0,0.7719477360671254,0.5685806047212306,0.2033671313458948
365,V1,d09172021,S5lJ6,final_decisions,3.0,1.0,77.0,1.0,1.0,53.0,63.0,Macc1n.jpg,Lewia1.jpg,38.0,37.0,1.0,53.0,63.0,1.0,0.657,-0.6909218150855462,1.0,-0.34657148633529583,-0.3974132691717696,0.050841782836473726
366,V1,d09172021,S5lJ6,final_decisions,3.0,0.0,78.0,1.0,1.0,38.0,23.0,Krasa1.jpg,Rohlb1.jpg,36.0,33.0,1.0,38.0,23.0,1.0,0.7090000000000001,-0.5287010258153586,3.0,-0.4482550520082432,-0.6007804005176643,0.15252534850942112
367,V1,d09172021,S5lJ6,final_decisions,3.0,0.0,79.0,1.0,1.0,38.0,50.0,Krasa1.jpg,Klic1n.jpg,36.0,32.0,1.0,38.0,50.0,1.0,0.73,-0.4631887839947058,4.0,-0.4482550520082432,-0.6516221833541379,0.2033671313458948
368,V1,d09172021,S5lJ6,final_decisions,3.0,1.0,80.0,0.0,0.0,19.0,4.0,Picc1n.jpg,Krasb1.jpg,33.0,32.0,1.0,19.0,4.0,0.0,0.6829999999999999,-0.6098114204504522,1.0,-0.6007804005176643,-0.6516221833541379,0.05084178283647367
369,V1,d09172021,S5lJ6,final_decisions,3.0,0.0,81.0,1.0,0.0,50.0,12.0,Klic1n.jpg,Klie1n.jpg,32.0,59.0,0.0,12.0,50.0,1.0,0.882,0.010995061564304378,-27.0,-0.6516221833541379,0.7211059532306517,-1.3727281365847896
370,V1,d09172021,S5lJ6,final_decisions,3.0,1.0,82.0,1.0,1.0,53.0,66.0,Macc1n.jpg,Vinca1.jpg,38.0,44.0,1.0,53.0,66.0,1.0,0.667,-0.6597255094566639,-6.0,-0.34657148633529583,-0.041520789316453685,-0.3050506970188421
371,V1,d09172021,S5lJ6,final_decisions,3.0,1.0,83.0,0.0,0.0,37.0,4.0,Deka1n.jpg,Krasb1.jpg,31.0,32.0,1.0,37.0,4.0,0.0,0.937,0.1825747425231569,-1.0,-0.7024639661906117,-0.6516221833541379,-0.05084178283647367
372,V1,d09172021,S5lJ6,final_decisions,3.0,0.0,84.0,1.0,0.0,64.0,30.0,Vincb1.jpg,Kraa1n.jpg,40.0,31.0,1.0,64.0,30.0,0.0,0.706,-0.5380599175040234,9.0,-0.2448879206623485,-0.7024639661906117,0.4575760455282633
373,V1,d09172021,S5lJ6,final_decisions,3.0,1.0,85.0,1.0,0.0,43.0,6.0,Clifb1.jpg,Gusc1n.jpg,35.0,53.0,0.0,6.0,43.0,1.0,0.887,0.026593214378745515,-18.0,-0.499096834844717,0.4160552562118096,-0.9151520910565264
374,V1,d09172021,S5lJ6,final_decisions,3.0,1.0,86.0,1.0,0.0,43.0,57.0,Clifb1.jpg,Lassa1.jpg,35.0,58.0,0.0,57.0,43.0,1.0,0.652,-0.7065199678999873,-23.0,-0.499096834844717,0.6702641703941781,-1.169361005238895
375,V1,d09172021,S5lJ6,final_decisions,3.0,1.0,87.0,1.0,0.0,63.0,57.0,Lewia1.jpg,Lassa1.jpg,37.0,58.0,0.0,57.0,63.0,1.0,0.504,-1.168225291207445,-21.0,-0.3974132691717696,0.6702641703941781,-1.0676774395659476
376,V1,d09172021,S5lJ6,final_decisions,3.0,0.0,88.0,1.0,1.0,38.0,64.0,Krasa1.jpg,Vincb1.jpg,36.0,40.0,1.0,38.0,64.0,1.0,0.715,-0.5099832424380293,-4.0,-0.4482550520082432,-0.2448879206623485,-0.2033671313458948
377,V1,d09172021,S5lJ6,final_decisions,3.0,1.0,89.0,0.0,1.0,18.0,36.0,Krab1n.jpg,Gustb1.jpg,44.0,43.0,0.0,36.0,18.0,0.0,0.875,-0.010842352375913215,1.0,-0.041520789316453685,-0.09236257215292737,0.0508417828364737
378,V1,d09172021,S5lJ6,final_decisions,3.0,0.0,90.0,0.0,0.0,15.0,55.0,Lassc1.jpg,Clia1n.jpg,35.0,56.0,1.0,15.0,55.0,0.0,0.636,-0.7564340569061989,-21.0,-0.499096834844717,0.5685806047212306,-1.0676774395659476
379,V1,d09172021,S5lJ6,final_decisions,3.0,0.0,91.0,0.0,1.0,51.0,32.0,Lewic1.jpg,Kupkb1.jpg,50.0,31.0,1.0,51.0,32.0,1.0,0.961,0.257445876032474,19.0,0.2635299077023885,-0.7024639661906117,0.9659938738930002
380,V1,d09172021,S5lJ6,final_decisions,3.0,0.0,92.0,0.0,1.0,51.0,15.0,Lewic1.jpg,Lassc1.jpg,50.0,35.0,0.0,15.0,51.0,0.0,0.737,-0.44135137005448827,15.0,0.2635299077023885,-0.499096834844717,0.7626267425471054
381,V1,d09172021,S5lJ6,final_decisions,3.0,0.0,93.0,1.0,0.0,23.0,12.0,Rohlb1.jpg,Klie1n.jpg,33.0,59.0,0.0,12.0,23.0,1.0,0.649,-0.7158788595886519,-26.0,-0.6007804005176643,0.7211059532306517,-1.3218863537483159
382,V1,d09172021,S5lJ6,final_decisions,3.0,1.0,94.0,0.0,1.0,18.0,19.0,Krab1n.jpg,Picc1n.jpg,44.0,33.0,0.0,19.0,18.0,0.0,1.3019999999999998,1.3212398979773592,11.0,-0.041520789316453685,-0.6007804005176643,0.5592596112012107
383,V1,d09172021,S5lJ6,final_decisions,3.0,0.0,95.0,1.0,0.0,50.0,30.0,Klic1n.jpg,Kraa1n.jpg,32.0,31.0,0.0,30.0,50.0,1.0,1.01,0.4103077736139972,1.0,-0.6516221833541379,-0.7024639661906117,0.05084178283647367
384,V1,d09172021,S5lJ6,final_decisions,3.0,1.0,96.0,1.0,0.0,66.0,6.0,Vinca1.jpg,Gusc1n.jpg,44.0,53.0,0.0,6.0,66.0,1.0,1.061,0.5694089323212964,-9.0,-0.041520789316453685,0.4160552562118096,-0.4575760455282633
385,V1,d09172021,S5lJ6,final_decisions,3.0,1.0,97.0,0.0,0.0,36.0,4.0,Gustb1.jpg,Krasb1.jpg,43.0,32.0,1.0,36.0,4.0,0.0,0.6579999999999999,-0.6878021845226578,11.0,-0.09236257215292737,-0.6516221833541379,0.5592596112012106
386,V1,d09172021,S5lJ6,final_decisions,3.0,1.0,98.0,1.0,1.0,57.0,66.0,Lassa1.jpg,Vinca1.jpg,58.0,44.0,1.0,57.0,66.0,1.0,0.531,-1.0839952660094625,14.0,0.6702641703941781,-0.041520789316453685,0.7117849597106317
387,V1,d09172021,S5lJ6,final_decisions,3.0,1.0,99.0,0.0,1.0,33.0,19.0,Kline1.jpg,Picc1n.jpg,55.0,33.0,1.0,33.0,19.0,1.0,0.46799999999999997,-1.2805319914714206,22.0,0.517738821884757,-0.6007804005176643,1.1185192224024214
388,V1,d09172021,S5lJ6,final_decisions,3.0,0.0,100.0,0.0,1.0,7.0,29.0,Macb1n.jpg,Klinb1.jpg,46.0,60.0,0.0,29.0,7.0,0.0,1.083,0.6380408047048374,-14.0,0.0601627763564937,0.7719477360671254,-0.7117849597106317
389,V1,d09172021,S5lJ6,final_decisions,3.0,1.0,101.0,0.0,0.0,37.0,18.0,Deka1n.jpg,Krab1n.jpg,31.0,44.0,1.0,37.0,18.0,0.0,2.033,3.601689839448651,-13.0,-0.7024639661906117,-0.041520789316453685,-0.6609431768741579
390,V1,d09172021,S5lJ6,final_decisions,3.0,1.0,102.0,0.0,1.0,33.0,36.0,Kline1.jpg,Gustb1.jpg,55.0,43.0,0.0,36.0,33.0,0.0,1.0390000000000001,0.5007770599377555,12.0,0.517738821884757,-0.09236257215292737,0.6101013940376844
391,V1,d09172021,S5lJ6,final_decisions,3.0,1.0,103.0,1.0,1.0,53.0,43.0,Macc1n.jpg,Clifb1.jpg,38.0,35.0,1.0,53.0,43.0,1.0,0.6579999999999999,-0.6878021845226578,3.0,-0.34657148633529583,-0.499096834844717,0.15252534850942112
392,V1,d09172021,S5lJ6,final_decisions,3.0,0.0,104.0,0.0,0.0,29.0,51.0,Klinb1.jpg,Lewic1.jpg,60.0,50.0,1.0,29.0,51.0,0.0,1.111,0.7253904604657078,10.0,0.7719477360671254,0.2635299077023885,0.5084178283647369
393,V1,d09172021,S5lJ6,final_decisions,3.0,0.0,105.0,0.0,1.0,7.0,15.0,Macb1n.jpg,Lassc1.jpg,46.0,35.0,0.0,15.0,7.0,0.0,1.212,1.0404731473174185,11.0,0.0601627763564937,-0.499096834844717,0.5592596112012107
394,V1,d09172021,S5lJ6,final_decisions,3.0,1.0,106.0,0.0,1.0,33.0,37.0,Kline1.jpg,Deka1n.jpg,55.0,31.0,1.0,33.0,37.0,1.0,1.38,1.56457108188264,24.0,0.517738821884757,-0.7024639661906117,1.2202027880753683
395,V1,d09172021,S5lJ6,final_decisions,3.0,0.0,107.0,1.0,1.0,30.0,23.0,Kraa1n.jpg,Rohlb1.jpg,31.0,33.0,1.0,30.0,23.0,1.0,0.85,-0.0888331164481189,-2.0,-0.7024639661906117,-0.6007804005176643,-0.10168356567294734
396,V1,d09172021,S5lJ6,final_decisions,4.0,1.0,108.0,1.0,0.0,43.0,57.0,Clifb1.jpg,Lassa1.jpg,35.0,58.0,0.0,57.0,43.0,1.0,0.579,-0.934252998990828,-23.0,-0.499096834844717,0.6702641703941781,-1.169361005238895
397,V1,d09172021,S5lJ6,final_decisions,4.0,0.0,109.0,1.0,1.0,38.0,50.0,Krasa1.jpg,Klic1n.jpg,36.0,32.0,1.0,38.0,50.0,1.0,0.578,-0.937372629553716,4.0,-0.4482550520082432,-0.6516221833541379,0.2033671313458948
398,V1,d09172021,S5lJ6,final_decisions,4.0,1.0,110.0,0.0,1.0,18.0,37.0,Krab1n.jpg,Deka1n.jpg,44.0,31.0,0.0,37.0,18.0,0.0,0.97,0.2855225510984681,13.0,-0.041520789316453685,-0.7024639661906117,0.6609431768741579
399,V1,d09172021,S5lJ6,final_decisions,4.0,1.0,111.0,1.0,1.0,6.0,43.0,Gusc1n.jpg,Clifb1.jpg,53.0,35.0,1.0,6.0,43.0,1.0,0.733,-0.4538298923060412,18.0,0.4160552562118096,-0.499096834844717,0.9151520910565264
400,V1,d09172021,S5lJ6,final_decisions,4.0,1.0,112.0,1.0,1.0,6.0,66.0,Gusc1n.jpg,Vinca1.jpg,53.0,44.0,1.0,6.0,66.0,1.0,0.469,-1.2774123609085326,9.0,0.4160552562118096,-0.041520789316453685,0.4575760455282633
401,V1,d09172021,S5lJ6,final_decisions,4.0,1.0,113.0,0.0,0.0,19.0,18.0,Picc1n.jpg,Krab1n.jpg,33.0,44.0,1.0,19.0,18.0,0.0,0.895,0.05155025888185134,-11.0,-0.6007804005176643,-0.041520789316453685,-0.5592596112012107
402,V1,d09172021,S5lJ6,final_decisions,4.0,0.0,114.0,0.0,1.0,7.0,32.0,Macb1n.jpg,Kupkb1.jpg,46.0,31.0,1.0,7.0,32.0,1.0,0.754,-0.3883176504853884,15.0,0.0601627763564937,-0.7024639661906117,0.7626267425471054
403,V1,d09172021,S5lJ6,final_decisions,4.0,1.0,115.0,0.0,1.0,4.0,36.0,Krasb1.jpg,Gustb1.jpg,32.0,43.0,0.0,36.0,4.0,0.0,1.013,0.4196666653026615,-11.0,-0.6516221833541379,-0.09236257215292737,-0.5592596112012106
404,V1,d09172021,S5lJ6,final_decisions,4.0,0.0,116.0,1.0,0.0,50.0,12.0,Klic1n.jpg,Klie1n.jpg,32.0,59.0,0.0,12.0,50.0,1.0,0.978,0.3104795956015739,-27.0,-0.6516221833541379,0.7211059532306517,-1.3727281365847896
405,V1,d09172021,S5lJ6,final_decisions,4.0,0.0,117.0,1.0,0.0,23.0,12.0,Rohlb1.jpg,Klie1n.jpg,33.0,59.0,0.0,12.0,23.0,1.0,0.735,-0.4475906311802647,-26.0,-0.6007804005176643,0.7211059532306517,-1.3218863537483159
406,V1,d09172021,S5lJ6,final_decisions,4.0,1.0,118.0,1.0,0.0,63.0,53.0,Lewia1.jpg,Macc1n.jpg,37.0,38.0,0.0,53.0,63.0,1.0,2.026,3.579852425508433,-1.0,-0.3974132691717696,-0.34657148633529583,-0.050841782836473726
407,V1,d09172021,S5lJ6,final_decisions,4.0,1.0,119.0,1.0,0.0,43.0,53.0,Clifb1.jpg,Macc1n.jpg,35.0,38.0,0.0,53.0,43.0,1.0,0.5920000000000001,-0.893697801673281,-3.0,-0.499096834844717,-0.34657148633529583,-0.15252534850942112
408,V1,d09172021,S5lJ6,final_decisions,4.0,1.0,120.0,1.0,0.0,63.0,6.0,Lewia1.jpg,Gusc1n.jpg,37.0,53.0,0.0,6.0,63.0,1.0,1.194,0.9843197971854304,-16.0,-0.3974132691717696,0.4160552562118096,-0.8134685253835792
409,V1,d09172021,S5lJ6,final_decisions,4.0,0.0,121.0,0.0,0.0,29.0,51.0,Klinb1.jpg,Lewic1.jpg,60.0,50.0,1.0,29.0,51.0,0.0,0.932,0.16697658970871576,10.0,0.7719477360671254,0.2635299077023885,0.5084178283647369
410,V1,d09172021,S5lJ6,final_decisions,4.0,1.0,122.0,0.0,1.0,4.0,37.0,Krasb1.jpg,Deka1n.jpg,32.0,31.0,0.0,37.0,4.0,0.0,1.125,0.769065288346143,1.0,-0.6516221833541379,-0.7024639661906117,0.05084178283647367
411,V1,d09172021,S5lJ6,final_decisions,4.0,0.0,123.0,0.0,1.0,51.0,32.0,Lewic1.jpg,Kupkb1.jpg,50.0,31.0,0.0,32.0,51.0,0.0,1.0959999999999999,0.6785960020223847,19.0,0.2635299077023885,-0.7024639661906117,0.9659938738930002
412,V1,d09172021,S5lJ6,final_decisions,4.0,0.0,124.0,1.0,0.0,64.0,30.0,Vincb1.jpg,Kraa1n.jpg,40.0,31.0,0.0,30.0,64.0,1.0,0.845,-0.10443126926256004,9.0,-0.2448879206623485,-0.7024639661906117,0.4575760455282633
413,V1,d09172021,S5lJ6,final_decisions,4.0,0.0,125.0,0.0,0.0,15.0,51.0,Lassc1.jpg,Lewic1.jpg,35.0,50.0,1.0,15.0,51.0,0.0,0.703,-0.547418809192688,-15.0,-0.499096834844717,0.2635299077023885,-0.7626267425471054
414,V1,d09172021,S5lJ6,final_decisions,4.0,0.0,126.0,1.0,0.0,50.0,30.0,Klic1n.jpg,Kraa1n.jpg,32.0,31.0,0.0,30.0,50.0,1.0,0.845,-0.10443126926256004,1.0,-0.6516221833541379,-0.7024639661906117,0.05084178283647367
415,V1,d09172021,S5lJ6,final_decisions,4.0,0.0,127.0,1.0,1.0,38.0,64.0,Krasa1.jpg,Vincb1.jpg,36.0,40.0,1.0,38.0,64.0,1.0,1.008,0.4040685124882207,-4.0,-0.4482550520082432,-0.2448879206623485,-0.2033671313458948
416,V1,d09172021,S5lJ6,final_decisions,4.0,0.0,128.0,0.0,1.0,55.0,32.0,Clia1n.jpg,Kupkb1.jpg,56.0,31.0,0.0,32.0,55.0,0.0,0.823,-0.17306314164610104,25.0,0.5685806047212306,-0.7024639661906117,1.2710445709118423
417,V1,d09172021,S5lJ6,final_decisions,4.0,1.0,129.0,0.0,1.0,18.0,36.0,Krab1n.jpg,Gustb1.jpg,44.0,43.0,0.0,36.0,18.0,0.0,0.802,-0.2385753834667535,1.0,-0.041520789316453685,-0.09236257215292737,0.0508417828364737
418,V1,d09172021,S5lJ6,final_decisions,4.0,1.0,130.0,0.0,1.0,33.0,36.0,Kline1.jpg,Gustb1.jpg,55.0,43.0,1.0,33.0,36.0,1.0,0.93,0.1607373285829393,12.0,0.517738821884757,-0.09236257215292737,0.6101013940376844
419,V1,d09172021,S5lJ6,final_decisions,4.0,1.0,131.0,1.0,1.0,53.0,66.0,Macc1n.jpg,Vinca1.jpg,38.0,44.0,1.0,53.0,66.0,1.0,0.561,-0.9904063491228156,-6.0,-0.34657148633529583,-0.041520789316453685,-0.3050506970188421
420,V1,d09172021,S5lJ6,final_decisions,4.0,1.0,132.0,0.0,0.0,37.0,33.0,Deka1n.jpg,Kline1.jpg,31.0,55.0,0.0,33.0,37.0,1.0,0.738,-0.4382317394916001,-24.0,-0.7024639661906117,0.517738821884757,-1.2202027880753683
421,V1,d09172021,S5lJ6,final_decisions,4.0,0.0,133.0,0.0,1.0,55.0,15.0,Clia1n.jpg,Lassc1.jpg,56.0,35.0,0.0,15.0,55.0,0.0,0.703,-0.547418809192688,21.0,0.5685806047212306,-0.499096834844717,1.0676774395659476
422,V1,d09172021,S5lJ6,final_decisions,4.0,0.0,134.0,1.0,1.0,38.0,23.0,Krasa1.jpg,Rohlb1.jpg,36.0,33.0,1.0,38.0,23.0,1.0,0.614,-0.8250659292897399,3.0,-0.4482550520082432,-0.6007804005176643,0.15252534850942112
423,V1,d09172021,S5lJ6,final_decisions,4.0,0.0,135.0,1.0,1.0,30.0,23.0,Kraa1n.jpg,Rohlb1.jpg,31.0,33.0,1.0,30.0,23.0,1.0,0.518,-1.1245504633270094,-2.0,-0.7024639661906117,-0.6007804005176643,-0.10168356567294734
424,V1,d09172021,S5lJ6,final_decisions,4.0,0.0,136.0,1.0,1.0,12.0,64.0,Klie1n.jpg,Vincb1.jpg,59.0,40.0,1.0,12.0,64.0,1.0,1.0090000000000001,0.40718814305110856,19.0,0.7211059532306517,-0.2448879206623485,0.9659938738930002
425,V1,d09172021,S5lJ6,final_decisions,4.0,0.0,137.0,0.0,0.0,15.0,7.0,Lassc1.jpg,Macb1n.jpg,35.0,46.0,1.0,15.0,7.0,0.0,0.636,-0.7564340569061989,-11.0,-0.499096834844717,0.0601627763564937,-0.5592596112012107
426,V1,d09172021,S5lJ6,final_decisions,4.0,0.0,138.0,0.0,0.0,29.0,55.0,Klinb1.jpg,Clia1n.jpg,60.0,56.0,1.0,29.0,55.0,0.0,1.758,2.743791434654389,4.0,0.7719477360671254,0.5685806047212306,0.2033671313458948
427,V1,d09172021,S5lJ6,final_decisions,4.0,1.0,139.0,1.0,1.0,57.0,63.0,Lassa1.jpg,Lewia1.jpg,58.0,37.0,1.0,57.0,63.0,1.0,0.6629999999999999,-0.6722040317082167,21.0,0.6702641703941781,-0.3974132691717696,1.0676774395659476
428,V1,d09172021,S5lJ6,final_decisions,4.0,1.0,140.0,1.0,1.0,57.0,66.0,Lassa1.jpg,Vinca1.jpg,58.0,44.0,1.0,57.0,66.0,1.0,0.542,-1.049679329817692,14.0,0.6702641703941781,-0.041520789316453685,0.7117849597106317
429,V1,d09172021,S5lJ6,final_decisions,4.0,1.0,141.0,0.0,0.0,19.0,4.0,Picc1n.jpg,Krasb1.jpg,33.0,32.0,1.0,19.0,4.0,0.0,0.868,-0.032679766316130815,1.0,-0.6007804005176643,-0.6516221833541379,0.05084178283647367
430,V1,d09172021,S5lJ6,final_decisions,4.0,0.0,142.0,0.0,1.0,7.0,29.0,Macb1n.jpg,Klinb1.jpg,46.0,60.0,1.0,7.0,29.0,1.0,0.883,0.014114692127192604,-14.0,0.0601627763564937,0.7719477360671254,-0.7117849597106317
431,V1,d09172021,S5lJ6,final_decisions,4.0,1.0,143.0,0.0,0.0,19.0,33.0,Picc1n.jpg,Kline1.jpg,33.0,55.0,0.0,33.0,19.0,1.0,0.878,-0.0014834606872485322,-22.0,-0.6007804005176643,0.517738821884757,-1.1185192224024214
432,V1,d09172021,IDAjV,final_decisions,1.0,0.0,0.0,0.0,1.0,35.0,55.0,Gusa1n.jpg,Clia1n.jpg,55.0,53.0,,,,,,,2.0,0.11717735750292778,-0.08086888053019015,0.19804623803311794
433,V1,d09172021,IDAjV,final_decisions,1.0,0.0,1.0,1.0,0.0,11.0,34.0,Clifa1.jpg,Lasb1n.jpg,61.0,46.0,0.0,34.0,11.0,1.0,0.792,0.0249003091982236,15.0,0.7113160716022816,-0.7740307136461029,1.4853467852483844
434,V1,d09172021,IDAjV,final_decisions,1.0,0.0,2.0,0.0,1.0,33.0,55.0,Kline1.jpg,Clia1n.jpg,53.0,53.0,1.0,33.0,55.0,1.0,0.8370000000000001,0.17852781609234966,0.0,-0.08086888053019015,-0.08086888053019015,0.0
435,V1,d09172021,IDAjV,final_decisions,1.0,0.0,3.0,0.0,0.0,69.0,35.0,Picad1.jpg,Gusa1n.jpg,54.0,55.0,0.0,35.0,69.0,1.0,1.011,0.7725541760829712,-1.0,0.018154238486368816,0.11717735750292778,-0.09902311901655897
436,V1,d09172021,IDAjV,final_decisions,1.0,0.0,4.0,0.0,0.0,56.0,35.0,Clib1n.jpg,Gusa1n.jpg,51.0,55.0,0.0,35.0,56.0,1.0,0.7490000000000001,-0.12189930850060834,-4.0,-0.2789151185633081,0.11717735750292778,-0.3960924760662359
437,V1,d09172021,IDAjV,final_decisions,1.0,1.0,5.0,1.0,0.0,48.0,62.0,Maca1n.jpg,Mona1n.jpg,57.0,59.0,0.0,62.0,48.0,1.0,0.865,0.2741182648264728,-2.0,0.3152235955360457,0.5132698335691637,-0.19804623803311794
438,V1,d09172021,IDAjV,final_decisions,1.0,1.0,6.0,1.0,0.0,8.0,65.0,Picd1n.jpg,Roha1n.jpg,60.0,57.0,0.0,65.0,8.0,1.0,0.682,-0.350633596542974,3.0,0.6122929525857226,0.3152235955360457,0.29706935704967685
439,V1,d09172021,IDAjV,final_decisions,1.0,0.0,7.0,0.0,1.0,57.0,55.0,Lassa1.jpg,Clia1n.jpg,54.0,53.0,1.0,57.0,55.0,1.0,1.329,1.8581885581347972,1.0,0.018154238486368816,-0.08086888053019015,0.09902311901655897
440,V1,d09172021,IDAjV,final_decisions,1.0,1.0,8.0,0.0,1.0,46.0,52.0,Lewb1n.jpg,Dekoa1.jpg,46.0,60.0,1.0,46.0,52.0,1.0,1.528,2.5375635330666007,-14.0,-0.7740307136461029,0.6122929525857226,-1.3863236662318257
441,V1,d09172021,IDAjV,final_decisions,1.0,0.0,9.0,1.0,0.0,60.0,25.0,Kupc1n.jpg,Dekob1.jpg,58.0,55.0,0.0,25.0,60.0,1.0,0.961,0.6018569462006088,3.0,0.4142467145526047,0.11717735750292778,0.2970693570496769
442,V1,d09172021,IDAjV,final_decisions,1.0,1.0,10.0,1.0,1.0,7.0,8.0,Macb1n.jpg,Picd1n.jpg,60.0,60.0,1.0,7.0,8.0,1.0,1.056,0.9261816829770981,0.0,0.6122929525857226,0.6122929525857226,0.0
443,V1,d09172021,IDAjV,final_decisions,1.0,1.0,11.0,0.0,0.0,44.0,5.0,Mackb1.jpg,Pica1n.jpg,53.0,51.0,1.0,44.0,5.0,0.0,1.61,2.8175069900736758,2.0,-0.08086888053019015,-0.2789151185633081,0.19804623803311794
444,V1,d09172021,IDAjV,final_decisions,1.0,0.0,12.0,1.0,1.0,12.0,60.0,Klie1n.jpg,Kupc1n.jpg,56.0,58.0,1.0,12.0,60.0,1.0,0.836,0.17511387149470242,-2.0,0.2162004765194868,0.4142467145526047,-0.19804623803311794
445,V1,d09172021,IDAjV,final_decisions,1.0,0.0,13.0,1.0,1.0,34.0,60.0,Lasb1n.jpg,Kupc1n.jpg,46.0,58.0,1.0,34.0,60.0,1.0,0.755,-0.10141564091472484,-12.0,-0.7740307136461029,0.4142467145526047,-1.1882774281987076
446,V1,d09172021,IDAjV,final_decisions,1.0,1.0,14.0,1.0,1.0,62.0,8.0,Mona1n.jpg,Picd1n.jpg,59.0,60.0,1.0,62.0,8.0,1.0,0.591,-0.6613025549288741,-1.0,0.5132698335691637,0.6122929525857226,-0.09902311901655893
447,V1,d09172021,IDAjV,final_decisions,1.0,0.0,15.0,1.0,1.0,12.0,54.0,Klie1n.jpg,Rohla1.jpg,56.0,60.0,1.0,12.0,54.0,1.0,0.737,-0.1628666436723754,-4.0,0.2162004765194868,0.6122929525857226,-0.3960924760662358
448,V1,d09172021,IDAjV,final_decisions,1.0,1.0,16.0,0.0,0.0,67.0,5.0,Picab1.jpg,Pica1n.jpg,58.0,51.0,1.0,67.0,5.0,0.0,0.626,-0.5418144940112203,7.0,0.4142467145526047,-0.2789151185633081,0.6931618331159128
449,V1,d09172021,IDAjV,final_decisions,1.0,1.0,17.0,0.0,0.0,44.0,29.0,Mackb1.jpg,Klinb1.jpg,53.0,56.0,1.0,44.0,29.0,0.0,0.6,-0.6305770535500489,-3.0,-0.08086888053019015,0.2162004765194868,-0.2970693570496769
450,V1,d09172021,IDAjV,final_decisions,1.0,0.0,18.0,0.0,1.0,57.0,56.0,Lassa1.jpg,Clib1n.jpg,54.0,51.0,1.0,57.0,56.0,1.0,0.7879999999999999,0.011244530807634578,3.0,0.018154238486368816,-0.2789151185633081,0.2970693570496769
451,V1,d09172021,IDAjV,final_decisions,1.0,1.0,19.0,1.0,1.0,62.0,16.0,Mona1n.jpg,Vincc1.jpg,59.0,48.0,1.0,62.0,16.0,1.0,0.76,-0.08434591792648855,11.0,0.5132698335691637,-0.5759844756129849,1.0892543091821487
452,V1,d09172021,IDAjV,final_decisions,1.0,1.0,20.0,1.0,1.0,65.0,16.0,Roha1n.jpg,Vincc1.jpg,57.0,48.0,1.0,65.0,16.0,1.0,1.256,1.6089706025065482,9.0,0.3152235955360457,-0.5759844756129849,0.8912080711490307
453,V1,d09172021,IDAjV,final_decisions,1.0,1.0,21.0,0.0,1.0,46.0,67.0,Lewb1n.jpg,Picab1.jpg,46.0,58.0,1.0,46.0,67.0,1.0,1.199,1.414375760440655,-12.0,-0.7740307136461029,0.4142467145526047,-1.1882774281987076
454,V1,d09172021,IDAjV,final_decisions,1.0,1.0,22.0,1.0,1.0,7.0,16.0,Macb1n.jpg,Vincc1.jpg,60.0,48.0,1.0,7.0,16.0,1.0,0.624,-0.5486423832065148,12.0,0.6122929525857226,-0.5759844756129849,1.1882774281987074
455,V1,d09172021,IDAjV,final_decisions,1.0,1.0,23.0,0.0,0.0,52.0,29.0,Dekoa1.jpg,Klinb1.jpg,60.0,56.0,1.0,52.0,29.0,0.0,1.1320000000000001,1.1856414723982889,4.0,0.6122929525857226,0.2162004765194868,0.3960924760662358
456,V1,d09172021,IDAjV,final_decisions,1.0,1.0,24.0,0.0,1.0,46.0,44.0,Lewb1n.jpg,Mackb1.jpg,46.0,53.0,0.0,44.0,46.0,0.0,0.9390000000000001,0.5267501650523693,-7.0,-0.7740307136461029,-0.08086888053019015,-0.6931618331159127
457,V1,d09172021,IDAjV,final_decisions,1.0,1.0,25.0,1.0,0.0,48.0,7.0,Maca1n.jpg,Macb1n.jpg,57.0,60.0,0.0,7.0,48.0,1.0,0.737,-0.1628666436723754,-3.0,0.3152235955360457,0.6122929525857226,-0.29706935704967685
458,V1,d09172021,IDAjV,final_decisions,1.0,0.0,26.0,1.0,1.0,25.0,11.0,Dekob1.jpg,Clifa1.jpg,55.0,61.0,1.0,25.0,11.0,1.0,0.988,0.6940334503370847,-6.0,0.11717735750292778,0.7113160716022816,-0.5941387140993538
459,V1,d09172021,IDAjV,final_decisions,1.0,1.0,27.0,0.0,1.0,29.0,67.0,Klinb1.jpg,Picab1.jpg,56.0,58.0,0.0,67.0,29.0,0.0,1.733,3.237422175584288,-2.0,0.2162004765194868,0.4142467145526047,-0.19804623803311794
460,V1,d09172021,IDAjV,final_decisions,1.0,0.0,28.0,1.0,0.0,54.0,25.0,Rohla1.jpg,Dekob1.jpg,60.0,55.0,1.0,54.0,25.0,0.0,0.597,-0.6408188873429906,5.0,0.6122929525857226,0.11717735750292778,0.4951155950827948
461,V1,d09172021,IDAjV,final_decisions,1.0,0.0,29.0,0.0,1.0,33.0,56.0,Kline1.jpg,Clib1n.jpg,53.0,51.0,1.0,33.0,56.0,1.0,0.72,-0.22090370183237876,2.0,-0.08086888053019015,-0.2789151185633081,0.19804623803311794
462,V1,d09172021,IDAjV,final_decisions,1.0,0.0,30.0,0.0,0.0,69.0,33.0,Picad1.jpg,Kline1.jpg,54.0,53.0,0.0,33.0,69.0,1.0,0.8740000000000001,0.3048437662052981,1.0,0.018154238486368816,-0.08086888053019015,0.09902311901655897
463,V1,d09172021,IDAjV,final_decisions,1.0,0.0,31.0,1.0,1.0,34.0,54.0,Lasb1n.jpg,Rohla1.jpg,46.0,60.0,1.0,34.0,54.0,1.0,1.136,1.1992972507888775,-14.0,-0.7740307136461029,0.6122929525857226,-1.3863236662318257
464,V1,d09172021,IDAjV,final_decisions,1.0,1.0,32.0,0.0,1.0,5.0,52.0,Pica1n.jpg,Dekoa1.jpg,51.0,60.0,0.0,52.0,5.0,0.0,1.213,1.462170984807717,-9.0,-0.2789151185633081,0.6122929525857226,-0.8912080711490307
465,V1,d09172021,IDAjV,final_decisions,1.0,0.0,33.0,0.0,0.0,69.0,57.0,Picad1.jpg,Lassa1.jpg,54.0,54.0,0.0,57.0,69.0,1.0,0.966,0.6189266691888451,0.0,0.018154238486368816,0.018154238486368816,0.0
466,V1,d09172021,IDAjV,final_decisions,1.0,1.0,34.0,1.0,0.0,48.0,65.0,Maca1n.jpg,Roha1n.jpg,57.0,57.0,0.0,65.0,48.0,1.0,0.8140000000000001,0.1000070903464628,0.0,0.3152235955360457,0.3152235955360457,0.0
467,V1,d09172021,IDAjV,final_decisions,1.0,0.0,35.0,1.0,0.0,11.0,12.0,Clifa1.jpg,Klie1n.jpg,61.0,56.0,0.0,12.0,11.0,1.0,0.621,-0.5588842169994566,5.0,0.7113160716022816,0.2162004765194868,0.4951155950827949
468,V1,d09172021,IDAjV,final_decisions,2.0,0.0,36.0,1.0,1.0,34.0,54.0,Lasb1n.jpg,Rohla1.jpg,46.0,60.0,1.0,34.0,54.0,1.0,0.7959999999999999,0.03855608758881261,-14.0,-0.7740307136461029,0.6122929525857226,-1.3863236662318257
469,V1,d09172021,IDAjV,final_decisions,2.0,1.0,37.0,0.0,0.0,67.0,29.0,Picab1.jpg,Klinb1.jpg,58.0,56.0,0.0,29.0,67.0,1.0,2.398,5.507695333019711,2.0,0.4142467145526047,0.2162004765194868,0.19804623803311794
470,V1,d09172021,IDAjV,final_decisions,2.0,1.0,38.0,1.0,0.0,48.0,62.0,Maca1n.jpg,Mona1n.jpg,57.0,59.0,0.0,62.0,48.0,1.0,0.542,-0.8285858402135893,-2.0,0.3152235955360457,0.5132698335691637,-0.19804623803311794
471,V1,d09172021,IDAjV,final_decisions,2.0,0.0,39.0,1.0,0.0,11.0,34.0,Clifa1.jpg,Lasb1n.jpg,61.0,46.0,0.0,34.0,11.0,1.0,0.505,-0.9549017903265375,15.0,0.7113160716022816,-0.7740307136461029,1.4853467852483844
472,V1,d09172021,IDAjV,final_decisions,2.0,0.0,40.0,0.0,0.0,55.0,35.0,Clia1n.jpg,Gusa1n.jpg,53.0,55.0,0.0,35.0,55.0,1.0,1.026,0.8237633450476803,-2.0,-0.08086888053019015,0.11717735750292778,-0.19804623803311794
473,V1,d09172021,IDAjV,final_decisions,2.0,1.0,41.0,0.0,1.0,46.0,52.0,Lewb1n.jpg,Dekoa1.jpg,46.0,60.0,1.0,46.0,52.0,1.0,0.6459999999999999,-0.4735356020582752,-14.0,-0.7740307136461029,0.6122929525857226,-1.3863236662318257
474,V1,d09172021,IDAjV,final_decisions,2.0,1.0,42.0,1.0,1.0,65.0,48.0,Roha1n.jpg,Maca1n.jpg,57.0,57.0,1.0,65.0,48.0,1.0,0.917,0.45164338390413,0.0,0.3152235955360457,0.3152235955360457,0.0
475,V1,d09172021,IDAjV,final_decisions,2.0,1.0,43.0,0.0,0.0,44.0,29.0,Mackb1.jpg,Klinb1.jpg,53.0,56.0,1.0,44.0,29.0,0.0,1.024,0.8169354558523859,-3.0,-0.08086888053019015,0.2162004765194868,-0.2970693570496769
476,V1,d09172021,IDAjV,final_decisions,2.0,0.0,44.0,0.0,1.0,33.0,69.0,Kline1.jpg,Picad1.jpg,53.0,54.0,0.0,69.0,33.0,0.0,2.072,4.3947493941867055,-1.0,-0.08086888053019015,0.018154238486368816,-0.09902311901655897
477,V1,d09172021,IDAjV,final_decisions,2.0,1.0,45.0,0.0,1.0,46.0,44.0,Lewb1n.jpg,Mackb1.jpg,46.0,53.0,0.0,44.0,46.0,0.0,0.7979999999999999,0.04538397678410712,-7.0,-0.7740307136461029,-0.08086888053019015,-0.6931618331159127
478,V1,d09172021,IDAjV,final_decisions,2.0,1.0,46.0,1.0,0.0,8.0,7.0,Picd1n.jpg,Macb1n.jpg,60.0,60.0,0.0,7.0,8.0,1.0,0.8320000000000001,0.16145809310411338,0.0,0.6122929525857226,0.6122929525857226,0.0
479,V1,d09172021,IDAjV,final_decisions,2.0,0.0,47.0,0.0,0.0,55.0,57.0,Clia1n.jpg,Lassa1.jpg,53.0,54.0,0.0,57.0,55.0,1.0,0.6459999999999999,-0.4735356020582752,-1.0,-0.08086888053019015,0.018154238486368816,-0.09902311901655897
480,V1,d09172021,IDAjV,final_decisions,2.0,0.0,48.0,0.0,1.0,35.0,56.0,Gusa1n.jpg,Clib1n.jpg,55.0,51.0,1.0,35.0,56.0,1.0,0.6759999999999999,-0.3711172641288576,4.0,0.11717735750292778,-0.2789151185633081,0.3960924760662359
481,V1,d09172021,IDAjV,final_decisions,2.0,0.0,49.0,0.0,0.0,69.0,35.0,Picad1.jpg,Gusa1n.jpg,54.0,55.0,0.0,35.0,69.0,1.0,0.617,-0.5725399953900455,-1.0,0.018154238486368816,0.11717735750292778,-0.09902311901655897
482,V1,d09172021,IDAjV,final_decisions,2.0,0.0,50.0,1.0,0.0,54.0,12.0,Rohla1.jpg,Klie1n.jpg,60.0,56.0,0.0,12.0,54.0,1.0,0.626,-0.5418144940112203,4.0,0.6122929525857226,0.2162004765194868,0.3960924760662358
483,V1,d09172021,IDAjV,final_decisions,2.0,1.0,51.0,0.0,1.0,46.0,67.0,Lewb1n.jpg,Picab1.jpg,46.0,58.0,1.0,46.0,67.0,1.0,0.995,0.7179310625206154,-12.0,-0.7740307136461029,0.4142467145526047,-1.1882774281987076
484,V1,d09172021,IDAjV,final_decisions,2.0,0.0,52.0,1.0,1.0,25.0,11.0,Dekob1.jpg,Clifa1.jpg,55.0,61.0,1.0,25.0,11.0,1.0,0.67,-0.3916009317147411,-6.0,0.11717735750292778,0.7113160716022816,-0.5941387140993538
485,V1,d09172021,IDAjV,final_decisions,2.0,1.0,53.0,1.0,0.0,16.0,7.0,Vincc1.jpg,Macb1n.jpg,48.0,60.0,0.0,7.0,16.0,1.0,0.633,-0.5179168818276895,-12.0,-0.5759844756129849,0.6122929525857226,-1.1882774281987074
486,V1,d09172021,IDAjV,final_decisions,2.0,1.0,54.0,0.0,0.0,67.0,5.0,Picab1.jpg,Pica1n.jpg,58.0,51.0,1.0,67.0,5.0,0.0,0.9159999999999999,0.4482294393064828,7.0,0.4142467145526047,-0.2789151185633081,0.6931618331159128
487,V1,d09172021,IDAjV,final_decisions,2.0,0.0,55.0,1.0,0.0,54.0,25.0,Rohla1.jpg,Dekob1.jpg,60.0,55.0,0.0,25.0,54.0,1.0,0.7240000000000001,-0.2072479234417897,5.0,0.6122929525857226,0.11717735750292778,0.4951155950827948
488,V1,d09172021,IDAjV,final_decisions,2.0,1.0,56.0,0.0,0.0,52.0,5.0,Dekoa1.jpg,Pica1n.jpg,60.0,51.0,1.0,52.0,5.0,0.0,0.7390000000000001,-0.15603875447708088,9.0,0.6122929525857226,-0.2789151185633081,0.8912080711490307
489,V1,d09172021,IDAjV,final_decisions,2.0,1.0,57.0,1.0,1.0,7.0,48.0,Macb1n.jpg,Maca1n.jpg,60.0,57.0,1.0,7.0,48.0,1.0,0.688,-0.3301499289570909,3.0,0.6122929525857226,0.3152235955360457,0.29706935704967685
490,V1,d09172021,IDAjV,final_decisions,2.0,1.0,58.0,1.0,1.0,65.0,16.0,Roha1n.jpg,Vincc1.jpg,57.0,48.0,1.0,65.0,16.0,1.0,1.2590000000000001,1.6192124362994895,9.0,0.3152235955360457,-0.5759844756129849,0.8912080711490307
491,V1,d09172021,IDAjV,final_decisions,2.0,0.0,59.0,1.0,0.0,60.0,34.0,Kupc1n.jpg,Lasb1n.jpg,58.0,46.0,0.0,34.0,60.0,1.0,0.684,-0.3438057073476795,12.0,0.4142467145526047,-0.7740307136461029,1.1882774281987076
492,V1,d09172021,IDAjV,final_decisions,2.0,1.0,60.0,0.0,1.0,29.0,52.0,Klinb1.jpg,Dekoa1.jpg,56.0,60.0,1.0,29.0,52.0,1.0,0.728,-0.19359214505120068,-4.0,0.2162004765194868,0.6122929525857226,-0.3960924760662358
493,V1,d09172021,IDAjV,final_decisions,2.0,0.0,61.0,1.0,1.0,25.0,60.0,Dekob1.jpg,Kupc1n.jpg,55.0,58.0,1.0,25.0,60.0,1.0,0.932,0.5028525528688388,-3.0,0.11717735750292778,0.4142467145526047,-0.2970693570496769
494,V1,d09172021,IDAjV,final_decisions,2.0,1.0,62.0,1.0,1.0,65.0,8.0,Roha1n.jpg,Picd1n.jpg,57.0,60.0,1.0,65.0,8.0,1.0,0.9390000000000001,0.5267501650523693,-3.0,0.3152235955360457,0.6122929525857226,-0.29706935704967685
495,V1,d09172021,IDAjV,final_decisions,2.0,1.0,63.0,0.0,1.0,5.0,44.0,Pica1n.jpg,Mackb1.jpg,51.0,53.0,0.0,44.0,5.0,0.0,0.682,-0.350633596542974,-2.0,-0.2789151185633081,-0.08086888053019015,-0.19804623803311794
496,V1,d09172021,IDAjV,final_decisions,2.0,1.0,64.0,1.0,0.0,16.0,62.0,Vincc1.jpg,Mona1n.jpg,48.0,59.0,0.0,62.0,16.0,1.0,0.9179999999999999,0.4550573285017773,-11.0,-0.5759844756129849,0.5132698335691637,-1.0892543091821487
497,V1,d09172021,IDAjV,final_decisions,2.0,0.0,65.0,0.0,1.0,33.0,55.0,Kline1.jpg,Clia1n.jpg,53.0,53.0,1.0,33.0,55.0,1.0,1.0859999999999999,1.0286000209065156,0.0,-0.08086888053019015,-0.08086888053019015,0.0
498,V1,d09172021,IDAjV,final_decisions,2.0,0.0,66.0,1.0,1.0,12.0,60.0,Klie1n.jpg,Kupc1n.jpg,56.0,58.0,1.0,12.0,60.0,1.0,0.607,-0.6066794413665181,-2.0,0.2162004765194868,0.4142467145526047,-0.19804623803311794
499,V1,d09172021,IDAjV,final_decisions,2.0,0.0,67.0,1.0,1.0,12.0,11.0,Klie1n.jpg,Clifa1.jpg,56.0,61.0,1.0,12.0,11.0,1.0,0.527,-0.8797950091782981,-5.0,0.2162004765194868,0.7113160716022816,-0.4951155950827949
500,V1,d09172021,IDAjV,final_decisions,2.0,0.0,68.0,0.0,1.0,57.0,56.0,Lassa1.jpg,Clib1n.jpg,54.0,51.0,1.0,57.0,56.0,1.0,0.858,0.250220652642942,3.0,0.018154238486368816,-0.2789151185633081,0.2970693570496769
501,V1,d09172021,IDAjV,final_decisions,2.0,0.0,69.0,0.0,1.0,57.0,69.0,Lassa1.jpg,Picad1.jpg,54.0,54.0,0.0,69.0,57.0,0.0,0.63,-0.5281587156206312,0.0,0.018154238486368816,0.018154238486368816,0.0
502,V1,d09172021,IDAjV,final_decisions,2.0,0.0,70.0,0.0,0.0,56.0,33.0,Clib1n.jpg,Kline1.jpg,51.0,53.0,0.0,33.0,56.0,1.0,0.669,-0.3950148763123883,-2.0,-0.2789151185633081,-0.08086888053019015,-0.19804623803311794
503,V1,d09172021,IDAjV,final_decisions,2.0,1.0,71.0,1.0,1.0,62.0,8.0,Mona1n.jpg,Picd1n.jpg,59.0,60.0,1.0,62.0,8.0,1.0,0.975,0.6496521705676704,-1.0,0.5132698335691637,0.6122929525857226,-0.09902311901655893
504,V1,d09172021,IDAjV,final_decisions,3.0,1.0,72.0,0.0,1.0,46.0,67.0,Lewb1n.jpg,Picab1.jpg,46.0,58.0,1.0,46.0,67.0,1.0,0.643,-0.483777435851217,-12.0,-0.7740307136461029,0.4142467145526047,-1.1882774281987076
505,V1,d09172021,IDAjV,final_decisions,3.0,1.0,73.0,0.0,1.0,5.0,44.0,Pica1n.jpg,Mackb1.jpg,51.0,53.0,0.0,44.0,5.0,0.0,0.5589999999999999,-0.7705487820535859,-2.0,-0.2789151185633081,-0.08086888053019015,-0.19804623803311794
506,V1,d09172021,IDAjV,final_decisions,3.0,1.0,74.0,0.0,0.0,52.0,5.0,Dekoa1.jpg,Pica1n.jpg,60.0,51.0,1.0,52.0,5.0,0.0,0.611,-0.5930236629759291,9.0,0.6122929525857226,-0.2789151185633081,0.8912080711490307
507,V1,d09172021,IDAjV,final_decisions,3.0,1.0,75.0,1.0,1.0,65.0,16.0,Roha1n.jpg,Vincc1.jpg,57.0,48.0,1.0,65.0,16.0,1.0,0.5670000000000001,-0.7432372252724083,9.0,0.3152235955360457,-0.5759844756129849,0.8912080711490307
508,V1,d09172021,IDAjV,final_decisions,3.0,1.0,76.0,0.0,1.0,5.0,67.0,Pica1n.jpg,Picab1.jpg,51.0,58.0,1.0,5.0,67.0,1.0,0.531,-0.866139230787709,-7.0,-0.2789151185633081,0.4142467145526047,-0.6931618331159128
509,V1,d09172021,IDAjV,final_decisions,3.0,0.0,77.0,0.0,1.0,57.0,55.0,Lassa1.jpg,Clia1n.jpg,54.0,53.0,1.0,57.0,55.0,1.0,0.534,-0.8558973969947673,1.0,0.018154238486368816,-0.08086888053019015,0.09902311901655897
510,V1,d09172021,IDAjV,final_decisions,3.0,1.0,78.0,1.0,1.0,65.0,8.0,Roha1n.jpg,Picd1n.jpg,57.0,60.0,1.0,65.0,8.0,1.0,0.515,-0.9207623443500652,-3.0,0.3152235955360457,0.6122929525857226,-0.29706935704967685
511,V1,d09172021,IDAjV,final_decisions,3.0,1.0,79.0,0.0,0.0,44.0,46.0,Mackb1.jpg,Lewb1n.jpg,53.0,46.0,1.0,44.0,46.0,0.0,0.6579999999999999,-0.4325682668865081,7.0,-0.08086888053019015,-0.7740307136461029,0.6931618331159127
512,V1,d09172021,IDAjV,final_decisions,3.0,1.0,80.0,0.0,0.0,52.0,46.0,Dekoa1.jpg,Lewb1n.jpg,60.0,46.0,0.0,46.0,52.0,1.0,0.617,-0.5725399953900455,14.0,0.6122929525857226,-0.7740307136461029,1.3863236662318257
513,V1,d09172021,IDAjV,final_decisions,3.0,1.0,81.0,0.0,1.0,29.0,52.0,Klinb1.jpg,Dekoa1.jpg,56.0,60.0,1.0,29.0,52.0,1.0,0.512,-0.9310041781430068,-4.0,0.2162004765194868,0.6122929525857226,-0.3960924760662358
514,V1,d09172021,IDAjV,final_decisions,3.0,0.0,82.0,0.0,1.0,35.0,56.0,Gusa1n.jpg,Clib1n.jpg,55.0,51.0,1.0,35.0,56.0,1.0,0.672,-0.38477304251944655,4.0,0.11717735750292778,-0.2789151185633081,0.3960924760662359
515,V1,d09172021,IDAjV,final_decisions,3.0,0.0,83.0,1.0,0.0,60.0,34.0,Kupc1n.jpg,Lasb1n.jpg,58.0,46.0,0.0,34.0,60.0,1.0,0.562,-0.7603069482606442,12.0,0.4142467145526047,-0.7740307136461029,1.1882774281987076
516,V1,d09172021,IDAjV,final_decisions,3.0,0.0,84.0,0.0,0.0,56.0,57.0,Clib1n.jpg,Lassa1.jpg,51.0,54.0,0.0,57.0,56.0,1.0,0.621,-0.5588842169994566,-3.0,-0.2789151185633081,0.018154238486368816,-0.2970693570496769
517,V1,d09172021,IDAjV,final_decisions,3.0,0.0,85.0,1.0,1.0,25.0,60.0,Dekob1.jpg,Kupc1n.jpg,55.0,58.0,1.0,25.0,60.0,1.0,0.643,-0.483777435851217,-3.0,0.11717735750292778,0.4142467145526047,-0.2970693570496769
518,V1,d09172021,IDAjV,final_decisions,3.0,0.0,86.0,1.0,0.0,54.0,34.0,Rohla1.jpg,Lasb1n.jpg,60.0,46.0,0.0,34.0,54.0,1.0,0.565,-0.7500651144677027,14.0,0.6122929525857226,-0.7740307136461029,1.3863236662318257
519,V1,d09172021,IDAjV,final_decisions,3.0,1.0,87.0,1.0,0.0,48.0,62.0,Maca1n.jpg,Mona1n.jpg,57.0,59.0,0.0,62.0,48.0,1.0,0.561,-0.7637208928582915,-2.0,0.3152235955360457,0.5132698335691637,-0.19804623803311794
520,V1,d09172021,IDAjV,final_decisions,3.0,1.0,88.0,0.0,1.0,29.0,44.0,Klinb1.jpg,Mackb1.jpg,56.0,53.0,1.0,29.0,44.0,1.0,0.6,-0.6305770535500489,3.0,0.2162004765194868,-0.08086888053019015,0.2970693570496769
521,V1,d09172021,IDAjV,final_decisions,3.0,0.0,89.0,0.0,0.0,55.0,35.0,Clia1n.jpg,Gusa1n.jpg,53.0,55.0,0.0,35.0,55.0,1.0,0.653,-0.4496379898747444,-2.0,-0.08086888053019015,0.11717735750292778,-0.19804623803311794
522,V1,d09172021,IDAjV,final_decisions,3.0,0.0,90.0,1.0,1.0,25.0,11.0,Dekob1.jpg,Clifa1.jpg,55.0,61.0,1.0,25.0,11.0,1.0,0.6,-0.6305770535500489,-6.0,0.11717735750292778,0.7113160716022816,-0.5941387140993538
523,V1,d09172021,IDAjV,final_decisions,3.0,0.0,91.0,0.0,1.0,33.0,55.0,Kline1.jpg,Clia1n.jpg,53.0,53.0,1.0,33.0,55.0,1.0,1.046,0.8920422370006255,0.0,-0.08086888053019015,-0.08086888053019015,0.0
524,V1,d09172021,IDAjV,final_decisions,3.0,1.0,92.0,1.0,1.0,7.0,48.0,Macb1n.jpg,Maca1n.jpg,60.0,57.0,1.0,7.0,48.0,1.0,1.082,1.0149442425159263,3.0,0.6122929525857226,0.3152235955360457,0.29706935704967685
525,V1,d09172021,IDAjV,final_decisions,3.0,0.0,93.0,1.0,1.0,25.0,54.0,Dekob1.jpg,Rohla1.jpg,55.0,60.0,1.0,25.0,54.0,1.0,0.508,-0.944659956533596,-5.0,0.11717735750292778,0.6122929525857226,-0.4951155950827948
526,V1,d09172021,IDAjV,final_decisions,3.0,1.0,94.0,1.0,1.0,7.0,8.0,Macb1n.jpg,Picd1n.jpg,60.0,60.0,1.0,7.0,8.0,1.0,0.565,-0.7500651144677027,0.0,0.6122929525857226,0.6122929525857226,0.0
527,V1,d09172021,IDAjV,final_decisions,3.0,0.0,95.0,1.0,1.0,12.0,60.0,Klie1n.jpg,Kupc1n.jpg,56.0,58.0,1.0,12.0,60.0,1.0,0.732,-0.17993636666061166,-2.0,0.2162004765194868,0.4142467145526047,-0.19804623803311794
528,V1,d09172021,IDAjV,final_decisions,3.0,0.0,96.0,0.0,0.0,56.0,33.0,Clib1n.jpg,Kline1.jpg,51.0,53.0,0.0,33.0,56.0,1.0,1.2590000000000001,1.6192124362994895,-2.0,-0.2789151185633081,-0.08086888053019015,-0.19804623803311794
529,V1,d09172021,IDAjV,final_decisions,3.0,0.0,97.0,1.0,0.0,11.0,34.0,Clifa1.jpg,Lasb1n.jpg,61.0,46.0,0.0,34.0,11.0,1.0,0.5770000000000001,-0.7090977792959358,15.0,0.7113160716022816,-0.7740307136461029,1.4853467852483844
530,V1,d09172021,IDAjV,final_decisions,3.0,0.0,98.0,0.0,0.0,69.0,33.0,Picad1.jpg,Kline1.jpg,54.0,53.0,0.0,33.0,69.0,1.0,1.357,1.9537790068689205,1.0,0.018154238486368816,-0.08086888053019015,0.09902311901655897
531,V1,d09172021,IDAjV,final_decisions,3.0,1.0,99.0,1.0,0.0,16.0,7.0,Vincc1.jpg,Macb1n.jpg,48.0,60.0,0.0,7.0,16.0,1.0,0.674,-0.3779451533241521,-12.0,-0.5759844756129849,0.6122929525857226,-1.1882774281987074
532,V1,d09172021,IDAjV,final_decisions,3.0,1.0,100.0,1.0,0.0,16.0,62.0,Vincc1.jpg,Mona1n.jpg,48.0,59.0,0.0,62.0,16.0,1.0,0.615,-0.5793678845853399,-11.0,-0.5759844756129849,0.5132698335691637,-1.0892543091821487
533,V1,d09172021,IDAjV,final_decisions,3.0,0.0,101.0,0.0,1.0,57.0,69.0,Lassa1.jpg,Picad1.jpg,54.0,54.0,1.0,57.0,69.0,1.0,0.905,0.41067604873236296,0.0,0.018154238486368816,0.018154238486368816,0.0
534,V1,d09172021,IDAjV,final_decisions,3.0,1.0,102.0,0.0,0.0,67.0,29.0,Picab1.jpg,Klinb1.jpg,58.0,56.0,0.0,29.0,67.0,1.0,0.972,0.6394103367747286,2.0,0.4142467145526047,0.2162004765194868,0.19804623803311794
535,V1,d09172021,IDAjV,final_decisions,3.0,1.0,103.0,1.0,1.0,65.0,48.0,Roha1n.jpg,Maca1n.jpg,57.0,57.0,1.0,65.0,48.0,1.0,1.146,1.23343669676535,0.0,0.3152235955360457,0.3152235955360457,0.0
536,V1,d09172021,IDAjV,final_decisions,3.0,0.0,104.0,1.0,1.0,12.0,54.0,Klie1n.jpg,Rohla1.jpg,56.0,60.0,1.0,12.0,54.0,1.0,0.65,-0.4598798236676862,-4.0,0.2162004765194868,0.6122929525857226,-0.3960924760662358
537,V1,d09172021,IDAjV,final_decisions,3.0,0.0,105.0,0.0,1.0,35.0,69.0,Gusa1n.jpg,Picad1.jpg,55.0,54.0,1.0,35.0,69.0,1.0,0.982,0.6735497827512011,1.0,0.11717735750292778,0.018154238486368816,0.09902311901655897
538,V1,d09172021,IDAjV,final_decisions,3.0,1.0,106.0,1.0,0.0,8.0,62.0,Picd1n.jpg,Mona1n.jpg,60.0,59.0,0.0,62.0,8.0,1.0,0.897,0.38336449195118494,1.0,0.6122929525857226,0.5132698335691637,0.09902311901655893
539,V1,d09172021,IDAjV,final_decisions,3.0,0.0,107.0,1.0,0.0,11.0,12.0,Clifa1.jpg,Klie1n.jpg,61.0,56.0,0.0,12.0,11.0,1.0,0.5720000000000001,-0.726167502284172,5.0,0.7113160716022816,0.2162004765194868,0.4951155950827949
540,V1,d09172021,IDAjV,final_decisions,4.0,0.0,108.0,0.0,1.0,57.0,69.0,Lassa1.jpg,Picad1.jpg,54.0,54.0,1.0,57.0,69.0,1.0,0.68,-0.3574614857382685,0.0,0.018154238486368816,0.018154238486368816,0.0
541,V1,d09172021,IDAjV,final_decisions,4.0,1.0,109.0,0.0,1.0,5.0,67.0,Pica1n.jpg,Picab1.jpg,51.0,58.0,1.0,5.0,67.0,1.0,0.68,-0.3574614857382685,-7.0,-0.2789151185633081,0.4142467145526047,-0.6931618331159128
542,V1,d09172021,IDAjV,final_decisions,4.0,0.0,110.0,1.0,1.0,25.0,60.0,Dekob1.jpg,Kupc1n.jpg,55.0,58.0,1.0,25.0,60.0,1.0,0.534,-0.8558973969947673,-3.0,0.11717735750292778,0.4142467145526047,-0.2970693570496769
543,V1,d09172021,IDAjV,final_decisions,4.0,1.0,111.0,1.0,1.0,65.0,8.0,Roha1n.jpg,Picd1n.jpg,57.0,60.0,1.0,65.0,8.0,1.0,0.7040000000000001,-0.2755268153947348,-3.0,0.3152235955360457,0.6122929525857226,-0.29706935704967685
544,V1,d09172021,IDAjV,final_decisions,4.0,0.0,112.0,1.0,0.0,60.0,34.0,Kupc1n.jpg,Lasb1n.jpg,58.0,46.0,0.0,34.0,60.0,1.0,0.639,-0.49743321424180603,12.0,0.4142467145526047,-0.7740307136461029,1.1882774281987076
545,V1,d09172021,IDAjV,final_decisions,4.0,1.0,113.0,0.0,0.0,52.0,29.0,Dekoa1.jpg,Klinb1.jpg,60.0,56.0,0.0,29.0,52.0,1.0,0.612,-0.5896097183782818,4.0,0.6122929525857226,0.2162004765194868,0.3960924760662358
546,V1,d09172021,IDAjV,final_decisions,4.0,0.0,114.0,0.0,0.0,69.0,35.0,Picad1.jpg,Gusa1n.jpg,54.0,55.0,0.0,35.0,69.0,1.0,0.633,-0.5179168818276895,-1.0,0.018154238486368816,0.11717735750292778,-0.09902311901655897
547,V1,d09172021,IDAjV,final_decisions,4.0,1.0,115.0,0.0,1.0,29.0,67.0,Klinb1.jpg,Picab1.jpg,56.0,58.0,1.0,29.0,67.0,1.0,0.61,-0.5964376075735763,-2.0,0.2162004765194868,0.4142467145526047,-0.19804623803311794
548,V1,d09172021,IDAjV,final_decisions,4.0,1.0,116.0,1.0,0.0,48.0,65.0,Maca1n.jpg,Roha1n.jpg,57.0,57.0,0.0,65.0,48.0,1.0,0.5,-0.971971513314774,0.0,0.3152235955360457,0.3152235955360457,0.0
549,V1,d09172021,IDAjV,final_decisions,4.0,1.0,117.0,1.0,0.0,8.0,62.0,Picd1n.jpg,Mona1n.jpg,60.0,59.0,0.0,62.0,8.0,1.0,0.527,-0.8797950091782981,1.0,0.6122929525857226,0.5132698335691637,0.09902311901655893
550,V1,d09172021,IDAjV,final_decisions,4.0,1.0,118.0,0.0,1.0,46.0,67.0,Lewb1n.jpg,Picab1.jpg,46.0,58.0,1.0,46.0,67.0,1.0,0.7,-0.2891825937853238,-12.0,-0.7740307136461029,0.4142467145526047,-1.1882774281987076
551,V1,d09172021,IDAjV,final_decisions,4.0,1.0,119.0,1.0,0.0,48.0,62.0,Maca1n.jpg,Mona1n.jpg,57.0,59.0,0.0,62.0,48.0,1.0,0.48,-1.0402504052677193,-2.0,0.3152235955360457,0.5132698335691637,-0.19804623803311794
552,V1,d09172021,IDAjV,final_decisions,4.0,0.0,120.0,1.0,0.0,54.0,34.0,Rohla1.jpg,Lasb1n.jpg,60.0,46.0,0.0,34.0,54.0,1.0,0.509,-0.9412460119359488,14.0,0.6122929525857226,-0.7740307136461029,1.3863236662318257
553,V1,d09172021,IDAjV,final_decisions,4.0,1.0,121.0,1.0,1.0,65.0,16.0,Roha1n.jpg,Vincc1.jpg,57.0,48.0,1.0,65.0,16.0,1.0,0.6,-0.6305770535500489,9.0,0.3152235955360457,-0.5759844756129849,0.8912080711490307
554,V1,d09172021,IDAjV,final_decisions,4.0,1.0,122.0,1.0,1.0,7.0,8.0,Macb1n.jpg,Picd1n.jpg,60.0,60.0,1.0,7.0,8.0,1.0,0.627,-0.538400549413573,0.0,0.6122929525857226,0.6122929525857226,0.0
555,V1,d09172021,IDAjV,final_decisions,4.0,1.0,123.0,1.0,1.0,62.0,16.0,Mona1n.jpg,Vincc1.jpg,59.0,48.0,1.0,62.0,16.0,1.0,0.68,-0.3574614857382685,11.0,0.5132698335691637,-0.5759844756129849,1.0892543091821487
556,V1,d09172021,IDAjV,final_decisions,4.0,0.0,124.0,1.0,1.0,34.0,11.0,Lasb1n.jpg,Clifa1.jpg,46.0,61.0,1.0,34.0,11.0,1.0,0.669,-0.3950148763123883,-15.0,-0.7740307136461029,0.7113160716022816,-1.4853467852483844
557,V1,d09172021,IDAjV,final_decisions,4.0,1.0,125.0,0.0,1.0,46.0,44.0,Lewb1n.jpg,Mackb1.jpg,46.0,53.0,1.0,46.0,44.0,1.0,0.695,-0.3062523167735601,-7.0,-0.7740307136461029,-0.08086888053019015,-0.6931618331159127
558,V1,d09172021,IDAjV,final_decisions,4.0,0.0,126.0,0.0,1.0,57.0,55.0,Lassa1.jpg,Clia1n.jpg,54.0,53.0,1.0,57.0,55.0,1.0,0.7090000000000001,-0.2584570924064985,1.0,0.018154238486368816,-0.08086888053019015,0.09902311901655897
559,V1,d09172021,IDAjV,final_decisions,4.0,0.0,127.0,1.0,0.0,60.0,12.0,Kupc1n.jpg,Klie1n.jpg,58.0,56.0,0.0,12.0,60.0,1.0,0.738,-0.15945269907472814,2.0,0.4142467145526047,0.2162004765194868,0.19804623803311794
560,V1,d09172021,IDAjV,final_decisions,4.0,1.0,128.0,0.0,1.0,29.0,44.0,Klinb1.jpg,Mackb1.jpg,56.0,53.0,0.0,44.0,29.0,0.0,0.634,-0.5145029372300423,3.0,0.2162004765194868,-0.08086888053019015,0.2970693570496769
561,V1,d09172021,IDAjV,final_decisions,4.0,0.0,129.0,0.0,1.0,33.0,69.0,Kline1.jpg,Picad1.jpg,53.0,54.0,1.0,33.0,69.0,1.0,0.79,0.018072420002929086,-1.0,-0.08086888053019015,0.018154238486368816,-0.09902311901655897
562,V1,d09172021,IDAjV,final_decisions,4.0,0.0,130.0,1.0,0.0,54.0,12.0,Rohla1.jpg,Klie1n.jpg,60.0,56.0,0.0,12.0,54.0,1.0,0.54,-0.8354137294088838,4.0,0.6122929525857226,0.2162004765194868,0.3960924760662358
563,V1,d09172021,IDAjV,final_decisions,4.0,0.0,131.0,1.0,1.0,12.0,11.0,Klie1n.jpg,Clifa1.jpg,56.0,61.0,1.0,12.0,11.0,1.0,0.708,-0.26187103700414577,-5.0,0.2162004765194868,0.7113160716022816,-0.4951155950827949
564,V1,d09172021,IDAjV,final_decisions,4.0,1.0,132.0,0.0,0.0,52.0,46.0,Dekoa1.jpg,Lewb1n.jpg,60.0,46.0,0.0,46.0,52.0,1.0,0.63,-0.5281587156206312,14.0,0.6122929525857226,-0.7740307136461029,1.3863236662318257
565,V1,d09172021,IDAjV,final_decisions,4.0,1.0,133.0,0.0,0.0,52.0,5.0,Dekoa1.jpg,Pica1n.jpg,60.0,51.0,1.0,52.0,5.0,0.0,0.5329999999999999,-0.8593113415924145,9.0,0.6122929525857226,-0.2789151185633081,0.8912080711490307
566,V1,d09172021,IDAjV,final_decisions,4.0,1.0,134.0,1.0,0.0,48.0,7.0,Maca1n.jpg,Macb1n.jpg,57.0,60.0,0.0,7.0,48.0,1.0,0.5539999999999999,-0.7876185050418222,-3.0,0.3152235955360457,0.6122929525857226,-0.29706935704967685
567,V1,d09172021,IDAjV,final_decisions,4.0,0.0,135.0,0.0,1.0,57.0,56.0,Lassa1.jpg,Clib1n.jpg,54.0,51.0,1.0,57.0,56.0,1.0,0.72,-0.22090370183237876,3.0,0.018154238486368816,-0.2789151185633081,0.2970693570496769
568,V1,d09172021,IDAjV,final_decisions,4.0,0.0,136.0,0.0,1.0,33.0,55.0,Kline1.jpg,Clia1n.jpg,53.0,53.0,1.0,33.0,55.0,1.0,0.8029999999999999,0.062453699772343385,0.0,-0.08086888053019015,-0.08086888053019015,0.0
569,V1,d09172021,IDAjV,final_decisions,4.0,1.0,137.0,1.0,1.0,7.0,16.0,Macb1n.jpg,Vincc1.jpg,60.0,48.0,1.0,7.0,16.0,1.0,0.545,-0.8183440064206475,12.0,0.6122929525857226,-0.5759844756129849,1.1882774281987074
570,V1,d09172021,IDAjV,final_decisions,4.0,0.0,138.0,1.0,1.0,25.0,11.0,Dekob1.jpg,Clifa1.jpg,55.0,61.0,1.0,25.0,11.0,1.0,0.531,-0.866139230787709,-6.0,0.11717735750292778,0.7113160716022816,-0.5941387140993538
571,V1,d09172021,IDAjV,final_decisions,4.0,0.0,139.0,0.0,0.0,55.0,35.0,Clia1n.jpg,Gusa1n.jpg,53.0,55.0,0.0,35.0,55.0,1.0,0.6,-0.6305770535500489,-2.0,-0.08086888053019015,0.11717735750292778,-0.19804623803311794
572,V1,d09172021,IDAjV,final_decisions,4.0,0.0,140.0,0.0,0.0,56.0,33.0,Clib1n.jpg,Kline1.jpg,51.0,53.0,0.0,33.0,56.0,1.0,0.647,-0.4701216574606279,-2.0,-0.2789151185633081,-0.08086888053019015,-0.19804623803311794
573,V1,d09172021,IDAjV,final_decisions,4.0,0.0,141.0,1.0,1.0,25.0,54.0,Dekob1.jpg,Rohla1.jpg,55.0,60.0,1.0,25.0,54.0,1.0,0.54,-0.8354137294088838,-5.0,0.11717735750292778,0.6122929525857226,-0.4951155950827948
574,V1,d09172021,IDAjV,final_decisions,4.0,1.0,142.0,0.0,0.0,44.0,5.0,Mackb1.jpg,Pica1n.jpg,53.0,51.0,1.0,44.0,5.0,0.0,0.924,0.4755409960876608,2.0,-0.08086888053019015,-0.2789151185633081,0.19804623803311794
575,V1,d09172021,IDAjV,final_decisions,4.0,0.0,143.0,0.0,0.0,56.0,35.0,Clib1n.jpg,Gusa1n.jpg,51.0,55.0,0.0,35.0,56.0,1.0,0.583,-0.6886141117100522,-4.0,-0.2789151185633081,0.11717735750292778,-0.3960924760662359
576,V1,d09172021,59tg8,final_decisions,1.0,0.0,0.0,1.0,0.0,60.0,39.0,Kupc1n.jpg,Kupb1n.jpg,16.0,0.0,0.0,39.0,60.0,1.0,0.875,0.5189917408394822,16.0,-0.2036719091089735,-0.7141811329852518,0.5105092238762783
577,V1,d09172021,59tg8,final_decisions,1.0,1.0,1.0,1.0,0.0,55.0,16.0,Clia1n.jpg,Vincc1.jpg,20.0,0.0,0.0,16.0,55.0,1.0,1.147,1.9377430323805864,20.0,-0.07604460313990394,-0.7141811329852518,0.6381365298453479
578,V1,d09172021,59tg8,final_decisions,1.0,0.0,2.0,1.0,0.0,22.0,31.0,Klina1.jpg,Picac1.jpg,31.0,31.0,0.0,31.0,22.0,1.0,1.013,1.2387993814007774,0.0,0.2749304882750373,0.2749304882750373,0.0
579,V1,d09172021,59tg8,final_decisions,1.0,0.0,3.0,1.0,0.0,22.0,3.0,Klina1.jpg,Klib1n.jpg,31.0,11.0,0.0,3.0,22.0,1.0,0.9209999999999999,0.758927621026581,20.0,0.2749304882750373,-0.3632060415703105,0.6381365298453479
580,V1,d09172021,59tg8,final_decisions,1.0,1.0,4.0,0.0,1.0,24.0,43.0,Lewa1n.jpg,Clifb1.jpg,0.0,0.0,1.0,24.0,43.0,1.0,1.176,2.0890069568463656,0.0,-0.7141811329852518,-0.7141811329852518,0.0
581,V1,d09172021,59tg8,final_decisions,1.0,0.0,5.0,0.0,1.0,48.0,63.0,Maca1n.jpg,Lewia1.jpg,0.0,0.0,1.0,48.0,63.0,1.0,1.061,1.4891672563786196,0.0,-0.7141811329852518,-0.7141811329852518,0.0
582,V1,d09172021,59tg8,final_decisions,1.0,1.0,6.0,1.0,0.0,42.0,62.0,Mackc1.jpg,Mona1n.jpg,0.0,14.0,0.0,62.0,42.0,1.0,0.852,0.3990238007459328,-14.0,-0.7141811329852518,-0.2674855620935083,-0.4466955708917435
583,V1,d09172021,59tg8,final_decisions,1.0,0.0,7.0,0.0,0.0,4.0,37.0,Krasb1.jpg,Deka1n.jpg,0.0,0.0,0.0,37.0,4.0,1.0,1.4580000000000002,3.559918222341188,0.0,-0.7141811329852518,-0.7141811329852518,0.0
584,V1,d09172021,59tg8,final_decisions,1.0,1.0,8.0,0.0,0.0,56.0,64.0,Clib1n.jpg,Vincb1.jpg,11.0,12.0,0.0,64.0,56.0,1.0,1.235,2.3967508031732976,-1.0,-0.3632060415703105,-0.33129921507804305,-0.031906826492267386
585,V1,d09172021,59tg8,final_decisions,1.0,0.0,9.0,1.0,1.0,3.0,60.0,Klib1n.jpg,Kupc1n.jpg,11.0,16.0,1.0,3.0,60.0,1.0,0.742,-0.17473591274495495,-5.0,-0.3632060415703105,-0.2036719091089735,-0.15953413246133696
586,V1,d09172021,59tg8,final_decisions,1.0,1.0,10.0,1.0,0.0,42.0,34.0,Mackc1.jpg,Lasb1n.jpg,0.0,0.0,0.0,34.0,42.0,1.0,0.7809999999999999,0.028687985674541814,0.0,-0.7141811329852518,-0.7141811329852518,0.0
587,V1,d09172021,59tg8,final_decisions,1.0,1.0,11.0,0.0,0.0,43.0,51.0,Clifb1.jpg,Lewic1.jpg,0.0,0.0,0.0,51.0,43.0,1.0,1.234,2.391534805777925,0.0,-0.7141811329852518,-0.7141811329852518,0.0
588,V1,d09172021,59tg8,final_decisions,1.0,0.0,12.0,0.0,1.0,48.0,10.0,Maca1n.jpg,Vinb1n.jpg,0.0,0.0,1.0,48.0,10.0,1.0,0.7909999999999999,0.08084795962825893,0.0,-0.7141811329852518,-0.7141811329852518,0.0
589,V1,d09172021,59tg8,final_decisions,1.0,0.0,13.0,0.0,0.0,4.0,48.0,Krasb1.jpg,Maca1n.jpg,0.0,0.0,0.0,48.0,4.0,1.0,0.812,0.19038390493106488,0.0,-0.7141811329852518,-0.7141811329852518,0.0
590,V1,d09172021,59tg8,final_decisions,1.0,0.0,14.0,0.0,0.0,63.0,37.0,Lewia1.jpg,Deka1n.jpg,0.0,0.0,0.0,37.0,63.0,1.0,1.048,1.4213592902387877,0.0,-0.7141811329852518,-0.7141811329852518,0.0
591,V1,d09172021,59tg8,final_decisions,1.0,0.0,15.0,0.0,0.0,4.0,50.0,Krasb1.jpg,Klic1n.jpg,0.0,0.0,0.0,50.0,4.0,1.0,0.866,0.4720477642811368,0.0,-0.7141811329852518,-0.7141811329852518,0.0
592,V1,d09172021,59tg8,final_decisions,1.0,1.0,16.0,0.0,1.0,51.0,33.0,Lewic1.jpg,Kline1.jpg,0.0,21.0,0.0,33.0,51.0,0.0,0.966,0.9936475038183074,-21.0,-0.7141811329852518,-0.04413777664763655,-0.6700433563376152
593,V1,d09172021,59tg8,final_decisions,1.0,1.0,17.0,1.0,1.0,62.0,55.0,Mona1n.jpg,Clia1n.jpg,14.0,20.0,1.0,62.0,55.0,1.0,0.684,-0.4772637616765137,-6.0,-0.2674855620935083,-0.07604460313990394,-0.19144095895360436
594,V1,d09172021,59tg8,final_decisions,1.0,1.0,18.0,1.0,0.0,44.0,62.0,Mackb1.jpg,Mona1n.jpg,23.0,14.0,0.0,62.0,44.0,1.0,0.835,0.3103518450246137,9.0,0.01967587633689824,-0.2674855620935083,0.2871614384304065
595,V1,d09172021,59tg8,final_decisions,1.0,1.0,19.0,0.0,0.0,56.0,51.0,Clib1n.jpg,Lewic1.jpg,11.0,0.0,0.0,51.0,56.0,1.0,1.205,2.2402708813121457,11.0,-0.3632060415703105,-0.7141811329852518,0.3509750914149413
596,V1,d09172021,59tg8,final_decisions,1.0,0.0,20.0,1.0,1.0,39.0,22.0,Kupb1n.jpg,Klina1.jpg,0.0,31.0,1.0,39.0,22.0,1.0,1.099,1.6873751574027445,-31.0,-0.7141811329852518,0.2749304882750373,-0.9891116212602892
597,V1,d09172021,59tg8,final_decisions,1.0,1.0,21.0,0.0,1.0,24.0,33.0,Lewa1n.jpg,Kline1.jpg,0.0,21.0,0.0,33.0,24.0,0.0,0.757,-0.09649595181437927,-21.0,-0.7141811329852518,-0.04413777664763655,-0.6700433563376152
598,V1,d09172021,59tg8,final_decisions,1.0,1.0,22.0,1.0,1.0,16.0,44.0,Vincc1.jpg,Mackb1.jpg,0.0,23.0,1.0,16.0,44.0,1.0,0.775,-0.002607998697688462,-23.0,-0.7141811329852518,0.01967587633689824,-0.73385700932215
599,V1,d09172021,59tg8,final_decisions,1.0,0.0,23.0,0.0,1.0,50.0,63.0,Klic1n.jpg,Lewia1.jpg,0.0,0.0,1.0,50.0,63.0,1.0,0.938,0.8475995767478994,0.0,-0.7141811329852518,-0.7141811329852518,0.0
600,V1,d09172021,59tg8,final_decisions,1.0,1.0,24.0,0.0,0.0,43.0,64.0,Clifb1.jpg,Vincb1.jpg,0.0,12.0,0.0,64.0,43.0,1.0,0.846,0.3677278163737025,-12.0,-0.7141811329852518,-0.33129921507804305,-0.3828819179072087
601,V1,d09172021,59tg8,final_decisions,1.0,1.0,25.0,0.0,1.0,24.0,56.0,Lewa1n.jpg,Clib1n.jpg,0.0,11.0,0.0,56.0,24.0,0.0,0.9440000000000001,0.8788955611201297,-11.0,-0.7141811329852518,-0.3632060415703105,-0.3509750914149413
602,V1,d09172021,59tg8,final_decisions,1.0,1.0,26.0,1.0,1.0,16.0,42.0,Vincc1.jpg,Mackc1.jpg,0.0,0.0,1.0,16.0,42.0,1.0,0.635,-0.7328476340497275,0.0,-0.7141811329852518,-0.7141811329852518,0.0
603,V1,d09172021,59tg8,final_decisions,1.0,0.0,27.0,1.0,1.0,3.0,53.0,Klib1n.jpg,Macc1n.jpg,11.0,18.0,1.0,3.0,53.0,1.0,0.778,0.013039993488426674,-7.0,-0.3632060415703105,-0.13985825612443872,-0.22334778544587167
604,V1,d09172021,59tg8,final_decisions,1.0,0.0,28.0,0.0,1.0,37.0,10.0,Deka1n.jpg,Vinb1n.jpg,0.0,0.0,1.0,37.0,10.0,1.0,0.91,0.7015516496774921,0.0,-0.7141811329852518,-0.7141811329852518,0.0
605,V1,d09172021,59tg8,final_decisions,1.0,0.0,29.0,1.0,0.0,53.0,31.0,Macc1n.jpg,Picac1.jpg,18.0,31.0,0.0,31.0,53.0,1.0,0.899,0.6441756783284033,-13.0,-0.13985825612443872,0.2749304882750373,-0.4147887443994761
606,V1,d09172021,59tg8,final_decisions,1.0,0.0,30.0,1.0,1.0,31.0,60.0,Picac1.jpg,Kupc1n.jpg,31.0,16.0,1.0,31.0,60.0,1.0,0.805,0.1538719231634629,15.0,0.2749304882750373,-0.2036719091089735,0.4786023973840109
607,V1,d09172021,59tg8,final_decisions,1.0,1.0,31.0,0.0,1.0,64.0,33.0,Vincb1.jpg,Kline1.jpg,12.0,21.0,0.0,33.0,64.0,0.0,0.9420000000000001,0.8684635663293863,-9.0,-0.33129921507804305,-0.04413777664763655,-0.2871614384304065
608,V1,d09172021,59tg8,final_decisions,1.0,1.0,32.0,1.0,1.0,34.0,44.0,Lasb1n.jpg,Mackb1.jpg,0.0,23.0,1.0,34.0,44.0,1.0,0.6509999999999999,-0.6493916757237802,-23.0,-0.7141811329852518,0.01967587633689824,-0.73385700932215
609,V1,d09172021,59tg8,final_decisions,1.0,0.0,33.0,0.0,1.0,50.0,10.0,Klic1n.jpg,Vinb1n.jpg,0.0,0.0,1.0,50.0,10.0,1.0,0.597,-0.9310555350738526,0.0,-0.7141811329852518,-0.7141811329852518,0.0
610,V1,d09172021,59tg8,final_decisions,1.0,1.0,34.0,1.0,1.0,34.0,55.0,Lasb1n.jpg,Clia1n.jpg,0.0,20.0,1.0,34.0,55.0,1.0,0.525,-1.3066073475406152,-20.0,-0.7141811329852518,-0.07604460313990394,-0.6381365298453479
611,V1,d09172021,59tg8,final_decisions,1.0,0.0,35.0,1.0,1.0,39.0,53.0,Kupb1n.jpg,Macc1n.jpg,0.0,18.0,1.0,39.0,53.0,1.0,0.945,0.8841115585155015,-18.0,-0.7141811329852518,-0.13985825612443872,-0.5743228768608131
612,V1,d09172021,59tg8,final_decisions,2.0,1.0,36.0,1.0,0.0,44.0,34.0,Mackb1.jpg,Lasb1n.jpg,23.0,0.0,0.0,34.0,44.0,1.0,0.7759999999999999,0.00260799869768325,23.0,0.01967587633689824,-0.7141811329852518,0.73385700932215
613,V1,d09172021,59tg8,final_decisions,2.0,1.0,37.0,1.0,0.0,55.0,62.0,Clia1n.jpg,Mona1n.jpg,20.0,14.0,0.0,62.0,55.0,1.0,0.6559999999999999,-0.6233116887469217,6.0,-0.07604460313990394,-0.2674855620935083,0.19144095895360436
614,V1,d09172021,59tg8,final_decisions,2.0,1.0,38.0,0.0,1.0,51.0,56.0,Lewic1.jpg,Clib1n.jpg,0.0,11.0,0.0,56.0,51.0,0.0,0.996,1.1501274256794587,-11.0,-0.7141811329852518,-0.3632060415703105,-0.3509750914149413
615,V1,d09172021,59tg8,final_decisions,2.0,0.0,39.0,0.0,0.0,4.0,37.0,Krasb1.jpg,Deka1n.jpg,0.0,0.0,0.0,37.0,4.0,1.0,0.73,-0.2373278814894155,0.0,-0.7141811329852518,-0.7141811329852518,0.0
616,V1,d09172021,59tg8,final_decisions,2.0,0.0,40.0,0.0,0.0,4.0,50.0,Krasb1.jpg,Klic1n.jpg,0.0,0.0,0.0,50.0,4.0,1.0,0.6609999999999999,-0.597231701770063,0.0,-0.7141811329852518,-0.7141811329852518,0.0
617,V1,d09172021,59tg8,final_decisions,2.0,0.0,41.0,1.0,0.0,60.0,31.0,Kupc1n.jpg,Picac1.jpg,16.0,31.0,0.0,31.0,60.0,1.0,0.7440000000000001,-0.16430391795421154,-15.0,-0.2036719091089735,0.2749304882750373,-0.4786023973840109
