,version,group,PID,phase,condition,trial,old_pair,stimulus_left,stimulus_right,old_response,rt_pairs,chosen_object,left_object_chosen,rt_object,pairs_acc,zscored_rt_pairs,zscored_rt_object
24,V1,d09142021,CDRCj,memory_test,0.0,0.0,0.0,46.0,63.0,1.0,2041.0,,0.0,1448.0,0,0.7439233892078057,1.280911007816553
25,V1,d09142021,CDRCj,memory_test,0.0,1.0,0.0,30.0,21.0,1.0,1717.0,,0.0,2054.0,0,-0.0686553823162703,2.28526545110582
26,V1,d09142021,CDRCj,memory_test,0.0,2.0,1.0,68.0,30.0,1.0,1859.0,68.0,1.0,373.0,1,0.2874748200183556,-0.5007408511536806
27,V1,d09142021,CDRCj,memory_test,0.0,3.0,0.0,68.0,26.0,1.0,1206.0,,1.0,373.0,0,-1.3502225188866497,-0.5007408511536806
28,V1,d09142021,CDRCj,memory_test,0.0,4.0,0.0,53.0,47.0,1.0,2352.0,,0.0,1446.0,0,1.5238986915040638,1.2775963066835854
29,V1,d09142021,CDRCj,memory_test,1.0,5.0,0.0,39.0,48.0,0.0,1704.0,,,,1,-0.10125885154408816,
30,V1,d09142021,CDRCj,memory_test,0.0,6.0,0.0,56.0,42.0,0.0,2358.0,,,,1,1.5389464465322875,
31,V1,d09142021,CDRCj,memory_test,1.0,7.0,0.0,12.0,11.0,0.0,1795.0,,,,1,0.12696543305063687,
32,V1,d09142021,CDRCj,memory_test,1.0,8.0,1.0,55.0,45.0,0.0,2033.0,55.0,,,0,0.7238597158368408,
33,V1,d09142021,CDRCj,memory_test,1.0,9.0,1.0,48.0,44.0,1.0,2048.0,44.0,0.0,415.0,1,0.7614791034073999,-0.4311321273613552
34,V1,d09142021,CDRCj,memory_test,1.0,10.0,1.0,39.0,10.0,1.0,1367.0,39.0,1.0,316.0,1,-0.946441092295982,-0.5952098334432652
35,V1,d09142021,CDRCj,memory_test,1.0,11.0,0.0,44.0,29.0,0.0,2386.0,,,,1,1.6091693033306644,
36,V1,d09142021,CDRCj,memory_test,1.0,12.0,1.0,5.0,37.0,1.0,1767.0,5.0,1.0,432.0,1,0.05674257625225994,-0.4029571677311282
37,V1,d09142021,CDRCj,memory_test,0.0,13.0,1.0,63.0,56.0,1.0,1496.0,63.0,1.0,286.0,1,-0.6229143591891739,-0.6449303504377832
38,V1,d09142021,CDRCj,memory_test,0.0,14.0,1.0,26.0,31.0,1.0,1136.0,31.0,0.0,293.0,1,-1.5257796608825918,-0.6333288964723957
39,V1,d09142021,CDRCj,memory_test,1.0,15.0,0.0,37.0,55.0,1.0,1130.0,,0.0,1507.0,0,-1.5408274159108153,1.3786946912391056
40,V1,d09142021,CDRCj,memory_test,0.0,16.0,1.0,46.0,21.0,1.0,2011.0,21.0,0.0,269.0,1,0.6686846140666876,-0.6731053100680102
41,V1,d09142021,CDRCj,memory_test,0.0,17.0,1.0,47.0,42.0,1.0,1722.0,42.0,0.0,314.0,1,-0.056115586459417284,-0.5985245345762329
42,V1,d09142021,CDRCj,memory_test,0.0,18.0,1.0,69.0,53.0,1.0,2207.0,53.0,1.0,309.0,1,1.160244611655326,-0.6068112874086526
43,V1,d09142021,CDRCj,memory_test,1.0,19.0,1.0,11.0,8.0,0.0,1739.0,8.0,,,0,-0.013480280546117,
44,V1,d09142021,CDRCj,memory_test,1.0,20.0,1.0,12.0,29.0,1.0,1478.0,12.0,1.0,292.0,1,-0.6680576242738449,-0.6349862470388796
45,V1,d09142021,CDRCj,memory_test,1.0,21.0,0.0,45.0,8.0,0.0,1905.0,,,,1,0.4028409419014034,
46,V1,d09142021,CDRCj,memory_test,1.0,22.0,0.0,10.0,5.0,0.0,1272.0,,,,1,-1.1846972135761895,
47,V1,d09142021,CDRCj,memory_test,0.0,23.0,0.0,31.0,69.0,0.0,1136.0,,,,1,-1.5257796608825918,
48,V1,d09172021,S5lJ6,memory_test,0.0,0.0,1.0,38.0,7.0,1.0,6147.0,38.0,1.0,4029.0,1,1.7016583023475558,2.934225875310207
49,V1,d09172021,S5lJ6,memory_test,1.0,1.0,1.0,36.0,63.0,1.0,4529.0,63.0,1.0,1054.0,1,0.8314905971570019,0.2275918859190805
50,V1,d09172021,S5lJ6,memory_test,0.0,2.0,1.0,32.0,50.0,0.0,8412.0,50.0,,,0,2.919785528711341,
51,V1,d09172021,S5lJ6,memory_test,1.0,3.0,0.0,37.0,63.0,1.0,3697.0,,0.0,3482.0,0,0.3840372407178543,2.4365691384372843
52,V1,d09172021,S5lJ6,memory_test,0.0,4.0,1.0,51.0,12.0,1.0,3304.0,12.0,0.0,401.0,1,0.1726800663421511,-0.3665029023405517
53,V1,d09172021,S5lJ6,memory_test,1.0,5.0,0.0,33.0,66.0,1.0,4465.0,,1.0,1622.0,0,0.7970711082001444,0.7443542744818232
54,V1,d09172021,S5lJ6,memory_test,0.0,6.0,0.0,29.0,12.0,1.0,1954.0,,1.0,245.0,0,-0.5533560288415621,-0.5084306006077839
55,V1,d09172021,S5lJ6,memory_test,1.0,7.0,1.0,57.0,4.0,1.0,1100.0,57.0,1.0,294.0,1,-1.0126410846096294,-0.4638507466648712
56,V1,d09172021,S5lJ6,memory_test,1.0,8.0,1.0,43.0,19.0,1.0,1647.0,43.0,0.0,476.0,1,-0.7184620149314879,-0.298268432019767
57,V1,d09172021,S5lJ6,memory_test,1.0,9.0,0.0,57.0,36.0,1.0,1493.0,,1.0,457.0,0,-0.8012839102339263,-0.3155544978343658
58,V1,d09172021,S5lJ6,memory_test,0.0,10.0,0.0,51.0,23.0,1.0,1353.0,,1.0,552.0,0,-0.8765765423270521,-0.22912416876137184
59,V1,d09172021,S5lJ6,memory_test,0.0,11.0,0.0,64.0,7.0,1.0,1944.0,,0.0,241.0,0,-0.5587340739910711,-0.5120697723582257
60,V1,d09172021,S5lJ6,memory_test,0.0,12.0,0.0,38.0,55.0,1.0,1989.0,,1.0,306.0,0,-0.5345328708182806,-0.4529332314135456
61,V1,d09172021,S5lJ6,memory_test,0.0,13.0,0.0,32.0,30.0,1.0,1648.0,,0.0,235.0,0,-0.717924210416537,-0.5175285299838884
62,V1,d09172021,S5lJ6,memory_test,1.0,14.0,0.0,19.0,6.0,1.0,2952.0,,0.0,513.0,0,-0.0166271229205652,-0.26460609332817986
63,V1,d09172021,S5lJ6,memory_test,1.0,15.0,0.0,43.0,18.0,1.0,5315.0,,0.0,409.0,0,1.254204945908408,-0.359224558839668
64,V1,d09172021,S5lJ6,memory_test,0.0,16.0,1.0,30.0,55.0,1.0,743.0,30.0,1.0,222.0,1,-1.2046372964471002,-0.5293558381728245
65,V1,d09172021,S5lJ6,memory_test,0.0,17.0,0.0,50.0,15.0,0.0,2402.0,,,,1,-0.31241960614355946,
66,V1,d09172021,S5lJ6,memory_test,1.0,18.0,0.0,53.0,4.0,1.0,2052.0,,1.0,262.0,0,-0.500651186376374,-0.49296412066840606
67,V1,d09172021,S5lJ6,memory_test,0.0,19.0,1.0,64.0,29.0,0.0,2801.0,64.0,,,0,-0.09783560467815088,
68,V1,d09172021,S5lJ6,memory_test,1.0,20.0,1.0,6.0,33.0,1.0,1298.0,6.0,1.0,166.0,1,-0.9061557906493516,-0.5803042426790104
69,V1,d09172021,S5lJ6,memory_test,1.0,21.0,1.0,18.0,53.0,1.0,5056.0,53.0,0.0,307.0,1,1.1149135765361256,-0.4520234384759352
70,V1,d09172021,S5lJ6,memory_test,0.0,22.0,1.0,15.0,23.0,0.0,3219.0,23.0,,,0,0.12696668257132473,
71,V1,d09172021,S5lJ6,memory_test,1.0,23.0,1.0,66.0,37.0,0.0,2070.0,66.0,,,0,-0.4909707051072578,
72,V1,d09172021,IDAjV,memory_test,1.0,0.0,1.0,67.0,8.0,0.0,3027.0,8.0,,,0,0.9337131870995184,
73,V1,d09172021,IDAjV,memory_test,1.0,1.0,1.0,48.0,52.0,0.0,1572.0,48.0,,,0,-0.4364286162166634,
74,V1,d09172021,IDAjV,memory_test,1.0,2.0,1.0,65.0,29.0,1.0,1480.0,65.0,1.0,3277.0,1,-0.523063012027721,2.8220431110141933
75,V1,d09172021,IDAjV,memory_test,0.0,3.0,0.0,33.0,60.0,1.0,2941.0,,1.0,1870.0,0,0.8527288605804862,1.237843051364664
76,V1,d09172021,IDAjV,memory_test,1.0,4.0,0.0,65.0,52.0,1.0,1526.0,,1.0,281.0,0,-0.4797458141221922,-0.5512784090355505
77,V1,d09172021,IDAjV,memory_test,1.0,5.0,0.0,44.0,7.0,0.0,1467.0,,,,1,-0.5353048288271095,
78,V1,d09172021,IDAjV,memory_test,1.0,6.0,0.0,62.0,67.0,1.0,2363.0,,1.0,327.0,0,0.3084388521153639,-0.499485087966696
79,V1,d09172021,IDAjV,memory_test,0.0,7.0,0.0,25.0,56.0,1.0,1881.0,,1.0,412.0,0,-0.1454500476773506,-0.4037800381655517
80,V1,d09172021,IDAjV,memory_test,0.0,8.0,1.0,69.0,11.0,1.0,6259.0,11.0,1.0,1122.0,1,3.9772171790705833,0.3956386131145945
81,V1,d09172021,IDAjV,memory_test,0.0,9.0,1.0,33.0,34.0,1.0,1610.0,34.0,0.0,819.0,1,-0.4006448440338353,0.0544782591175744
82,V1,d09172021,IDAjV,memory_test,1.0,10.0,0.0,46.0,48.0,0.0,1659.0,,,,1,-0.3545026114822938,
83,V1,d09172021,IDAjV,memory_test,1.0,11.0,0.0,29.0,16.0,0.0,867.0,,,,1,-1.1003117580296586,
84,V1,d09172021,IDAjV,memory_test,0.0,12.0,1.0,60.0,56.0,0.0,2038.0,60.0,,,0,0.002393432130649759,
85,V1,d09172021,IDAjV,memory_test,1.0,13.0,0.0,8.0,5.0,0.0,1345.0,,,,1,-0.6501895710982946,
86,V1,d09172021,IDAjV,memory_test,0.0,14.0,1.0,55.0,54.0,1.0,1097.0,54.0,0.0,439.0,1,-0.8837257685020148,-0.3733796105816588
87,V1,d09172021,IDAjV,memory_test,0.0,15.0,1.0,25.0,35.0,1.0,1801.0,25.0,1.0,211.0,1,-0.2207843049043572,-0.6300943324011987
88,V1,d09172021,IDAjV,memory_test,1.0,16.0,1.0,44.0,16.0,0.0,1892.0,16.0,,,0,-0.1350915873086372,
89,V1,d09172021,IDAjV,memory_test,0.0,17.0,0.0,35.0,12.0,0.0,2245.0,,,,1,0.19732082270552925,
90,V1,d09172021,IDAjV,memory_test,0.0,18.0,1.0,57.0,12.0,0.0,1489.0,12.0,,,0,-0.5145879080896827,
91,V1,d09172021,IDAjV,memory_test,0.0,19.0,0.0,34.0,69.0,1.0,1599.0,,1.0,399.0,0,-0.4110033044025487,-0.4184172810763149
92,V1,d09172021,IDAjV,memory_test,1.0,20.0,1.0,7.0,5.0,1.0,2821.0,7.0,1.0,395.0,1,0.7397274747399764,-0.4229210481257805
93,V1,d09172021,IDAjV,memory_test,0.0,21.0,0.0,57.0,54.0,1.0,1772.0,,0.0,190.0,0,-0.24809297314914705,-0.6537391094108932
94,V1,d09172021,IDAjV,memory_test,0.0,22.0,0.0,11.0,55.0,0.0,2649.0,,,,1,0.5777588217019123,
95,V1,d09172021,IDAjV,memory_test,1.0,23.0,1.0,46.0,62.0,1.0,1451.0,62.0,0.0,276.0,1,-0.5503716802725108,-0.5569081178473825
96,V1,d09172021,59tg8,memory_test,1.0,0.0,0.0,42.0,33.0,0.0,3302.0,,,,1,1.7557023988421872,
97,V1,d09172021,59tg8,memory_test,0.0,1.0,0.0,53.0,37.0,0.0,1704.0,,,,1,0.010466319831364364,
98,V1,d09172021,59tg8,memory_test,0.0,2.0,1.0,22.0,10.0,0.0,1411.0,22.0,,,0,-0.3095300325780043,
99,V1,d09172021,59tg8,memory_test,1.0,3.0,1.0,55.0,33.0,0.0,1332.0,55.0,,,0,-0.3958089125791651,
100,V1,d09172021,59tg8,memory_test,0.0,4.0,1.0,3.0,48.0,0.0,1633.0,3.0,,,0,-0.06707545839752703,
101,V1,d09172021,59tg8,memory_test,1.0,5.0,0.0,24.0,34.0,0.0,1112.0,,,,1,-0.6360792113165751,
102,V1,d09172021,59tg8,memory_test,1.0,6.0,1.0,62.0,64.0,0.0,1152.0,62.0,,,0,-0.5923937024552277,
103,V1,d09172021,59tg8,memory_test,0.0,7.0,0.0,50.0,60.0,0.0,1082.0,,,,1,-0.6688433429625855,
104,V1,d09172021,59tg8,memory_test,0.0,8.0,1.0,60.0,4.0,0.0,1030.0,60.0,,,0,-0.7256345044823369,
105,V1,d09172021,59tg8,memory_test,0.0,9.0,0.0,3.0,4.0,0.0,1844.0,,,,1,0.16336560084607976,
106,V1,d09172021,59tg8,memory_test,0.0,10.0,0.0,63.0,31.0,0.0,1317.0,,,,1,-0.4121909784021704,
107,V1,d09172021,59tg8,memory_test,1.0,11.0,1.0,24.0,16.0,0.0,1028.0,16.0,,,0,-0.7278187799254042,
108,V1,d09172021,59tg8,memory_test,1.0,12.0,0.0,62.0,43.0,0.0,2314.0,,,,1,0.67667032996691,
109,V1,d09172021,59tg8,memory_test,1.0,13.0,0.0,44.0,64.0,0.0,1417.0,,,,1,-0.3029772062488022,
110,V1,d09172021,59tg8,memory_test,1.0,14.0,0.0,51.0,55.0,0.0,1212.0,,,,1,-0.5268654391632068,
111,V1,d09172021,59tg8,memory_test,0.0,15.0,0.0,48.0,22.0,0.0,1218.0,,,,1,-0.5203126128340048,
112,V1,d09172021,59tg8,memory_test,0.0,16.0,1.0,53.0,63.0,0.0,1223.0,53.0,,,0,-0.5148519242263364,
113,V1,d09172021,59tg8,memory_test,0.0,17.0,1.0,31.0,50.0,0.0,1856.0,31.0,,,0,0.17647125350448395,
114,V1,d09172021,59tg8,memory_test,1.0,18.0,1.0,34.0,51.0,0.0,981.0,34.0,,,0,-0.7791492528374873,
115,V1,d09172021,59tg8,memory_test,0.0,19.0,0.0,39.0,10.0,1.0,1396.0,,1.0,3191.0,0,-0.3259120984010095,1.1138147187189145
116,V1,d09172021,59tg8,memory_test,1.0,20.0,0.0,56.0,16.0,1.0,2482.0,,0.0,1740.0,0,0.8601494671845685,-0.2931601711776132
117,V1,d09172021,59tg8,memory_test,1.0,21.0,1.0,56.0,44.0,0.0,2094.0,44.0,,,0,0.4364000312295001,
118,V1,d09172021,59tg8,memory_test,0.0,22.0,1.0,37.0,39.0,0.0,1398.0,39.0,,,0,-0.32372782295794217,
119,V1,d09172021,59tg8,memory_test,1.0,23.0,1.0,43.0,42.0,1.0,5128.0,42.0,0.0,1196.0,1,3.749945878362689,-0.8206545475413011
120,V1,d09172021,VIK7A,memory_test,0.0,0.0,0.0,29.0,43.0,1.0,3876.0,,1.0,1468.0,0,2.4425960564350624,2.9047981685393034
121,V1,d09172021,VIK7A,memory_test,1.0,1.0,1.0,34.0,66.0,1.0,2762.0,66.0,0.0,938.0,1,0.9469646858586648,1.3597961320177634
122,V1,d09172021,VIK7A,memory_test,0.0,2.0,0.0,55.0,59.0,0.0,3313.0,,,,1,1.6867249059552494,
123,V1,d09172021,VIK7A,memory_test,1.0,3.0,0.0,2.0,32.0,1.0,1720.0,,0.0,393.0,0,-0.4520011024183606,-0.2289323772355189
124,V1,d09172021,VIK7A,memory_test,1.0,4.0,0.0,34.0,14.0,1.0,3411.0,,0.0,314.0,0,1.8182975040849505,-0.4592251336226919
125,V1,d09172021,VIK7A,memory_test,0.0,5.0,1.0,59.0,20.0,1.0,2024.0,20.0,0.0,386.0,1,-0.043857532709900136,-0.2493380645103317
126,V1,d09172021,VIK7A,memory_test,1.0,6.0,1.0,56.0,14.0,1.0,1899.0,14.0,0.0,395.0,1,-0.21167972420186576,-0.2231021808712867
127,V1,d09172021,VIK7A,memory_test,1.0,7.0,0.0,58.0,60.0,0.0,2146.0,,,,1,0.1199369261862583,
128,V1,d09172021,VIK7A,memory_test,1.0,8.0,0.0,66.0,40.0,0.0,2047.0,,,,1,-0.012978249475378472,
129,V1,d09172021,VIK7A,memory_test,0.0,9.0,1.0,43.0,50.0,1.0,1569.0,50.0,0.0,634.0,1,-0.654730309740655,0.4736062846544646
130,V1,d09172021,VIK7A,memory_test,1.0,10.0,1.0,2.0,11.0,1.0,1408.0,11.0,0.0,316.0,1,-0.8708852923823067,-0.4533949372584597
131,V1,d09172021,VIK7A,memory_test,0.0,11.0,1.0,31.0,29.0,1.0,1127.0,29.0,0.0,275.0,1,-1.2481495788562451,-0.5729139627252203
132,V1,d09172021,VIK7A,memory_test,0.0,12.0,1.0,55.0,68.0,1.0,1418.0,55.0,1.0,269.0,1,-0.8574595170629494,-0.5904045518179171
133,V1,d09172021,VIK7A,memory_test,1.0,13.0,1.0,57.0,60.0,0.0,1470.0,57.0,,,0,-0.7876454854022917,
134,V1,d09172021,VIK7A,memory_test,1.0,14.0,1.0,40.0,58.0,1.0,2028.0,58.0,0.0,197.0,1,-0.03848722258215725,-0.8002916209302773
135,V1,d09172021,VIK7A,memory_test,1.0,15.0,0.0,11.0,56.0,0.0,2631.0,,,,1,0.7710870291750849,
136,V1,d09172021,VIK7A,memory_test,0.0,16.0,0.0,68.0,50.0,0.0,1808.0,,,,1,-0.3338542796080167,
137,V1,d09172021,VIK7A,memory_test,1.0,17.0,0.0,48.0,57.0,0.0,2790.0,,,,1,0.9845568567528652,
138,V1,d09172021,VIK7A,memory_test,1.0,18.0,1.0,32.0,48.0,1.0,1051.0,32.0,1.0,271.0,1,-1.3501854712833603,-0.5845743554536849
139,V1,d09172021,VIK7A,memory_test,0.0,19.0,0.0,23.0,21.0,0.0,2141.0,,,,1,0.11322403852657968,
140,V1,d09172021,VIK7A,memory_test,0.0,20.0,1.0,21.0,7.0,1.0,1383.0,21.0,1.0,283.0,1,-0.9044497306807,-0.5495931772682915
141,V1,d09172021,VIK7A,memory_test,0.0,21.0,1.0,23.0,36.0,0.0,1990.0,36.0,,,0,-0.0895051687957148,
142,V1,d09172021,VIK7A,memory_test,0.0,22.0,0.0,36.0,31.0,1.0,2131.0,,1.0,231.0,0,0.09979826320722243,-0.7011782827383294
143,V1,d09172021,VIK7A,memory_test,0.0,23.0,0.0,7.0,20.0,1.0,1217.0,,0.0,703.0,0,-1.1273176009820305,0.6747480592204764
144,V1,d09142021,eGaxL,memory_test,0.0,0.0,0.0,66.0,37.0,0.0,3382.0,,,,1,0.9312460519123408,
145,V1,d09142021,eGaxL,memory_test,0.0,1.0,0.0,60.0,18.0,1.0,3172.0,,0.0,5829.0,0,0.7479499454670469,0.6407752064548018
146,V1,d09142021,eGaxL,memory_test,1.0,2.0,1.0,5.0,63.0,0.0,3362.0,63.0,,,0,0.913789279869932,
147,V1,d09142021,eGaxL,memory_test,0.0,3.0,1.0,67.0,60.0,0.0,3455.0,60.0,,,0,0.9949632698671336,
148,V1,d09142021,eGaxL,memory_test,1.0,4.0,0.0,55.0,63.0,1.0,1448.0,,0.0,2966.0,0,-0.756823804588605,-0.5358401325596913
149,V1,d09142021,eGaxL,memory_test,1.0,5.0,1.0,3.0,24.0,0.0,1744.0,24.0,,,0,-0.4984635783609525,
150,V1,d09142021,eGaxL,memory_test,0.0,6.0,1.0,49.0,18.0,0.0,2421.0,49.0,,,0,0.09244815527459062,
151,V1,d09142021,eGaxL,memory_test,1.0,7.0,0.0,13.0,64.0,1.0,4023.0,,0.0,2478.0,0,1.4907355958715478,-0.7363948951999543
152,V1,d09142021,eGaxL,memory_test,1.0,8.0,0.0,10.0,5.0,0.0,2880.0,,,,1,0.4930810736478761,
153,V1,d09142021,eGaxL,memory_test,0.0,9.0,0.0,20.0,49.0,1.0,2729.0,,0.0,1657.0,0,0.3612824447276885,-1.073803624969741
154,V1,d09142021,eGaxL,memory_test,1.0,10.0,1.0,10.0,64.0,0.0,1704.0,10.0,,,0,-0.5333771224457704,
155,V1,d09142021,eGaxL,memory_test,0.0,11.0,1.0,6.0,20.0,1.0,2296.0,6.0,1.0,8192.0,1,-0.01665666999046534,1.6119041083378782
156,V1,d09142021,eGaxL,memory_test,0.0,12.0,1.0,37.0,22.0,0.0,2326.0,37.0,,,0,0.009528488073148088,
157,V1,d09142021,eGaxL,memory_test,0.0,13.0,0.0,22.0,6.0,0.0,1209.0,,,,1,-0.9654322304953921,
158,V1,d09142021,eGaxL,memory_test,1.0,14.0,0.0,24.0,51.0,0.0,2083.0,,,,1,-0.2025712922421207,
159,V1,d09142021,eGaxL,memory_test,1.0,15.0,1.0,48.0,51.0,0.0,1266.0,48.0,,,0,-0.9156804301745264,
160,V1,d09142021,eGaxL,memory_test,1.0,16.0,1.0,13.0,34.0,0.0,1500.0,13.0,,,0,-0.7114361972783417,
161,V1,d09142021,eGaxL,memory_test,1.0,17.0,0.0,34.0,48.0,0.0,705.0,,,,1,-1.4053428859640975,
162,V1,d09142021,eGaxL,memory_test,0.0,18.0,1.0,56.0,0.0,0.0,778.0,0.0,,,0,-1.3416256680093048,
163,V1,d09142021,eGaxL,memory_test,1.0,19.0,0.0,3.0,32.0,0.0,608.0,,,,1,-1.490008230369781,
164,V1,d09142021,eGaxL,memory_test,0.0,20.0,0.0,52.0,56.0,0.0,1810.0,,,,1,-0.4408562306210029,
165,V1,d09142021,eGaxL,memory_test,0.0,21.0,1.0,52.0,66.0,0.0,5112.0,52.0,,,0,2.4412568335807148,
166,V1,d09142021,eGaxL,memory_test,0.0,22.0,0.0,0.0,67.0,0.0,1869.0,,,,1,-0.3893587530958965,
167,V1,d09142021,eGaxL,memory_test,1.0,23.0,1.0,32.0,55.0,1.0,3680.0,32.0,1.0,4497.0,1,1.1913519553442342,0.0933593379367072
168,V1,d09172021,NtP4V,memory_test,0.0,0.0,0.0,65.0,66.0,1.0,6082.0,,1.0,3647.0,0,4.429494495395629,2.7733111492489178
169,V1,d09172021,NtP4V,memory_test,0.0,1.0,1.0,29.0,67.0,1.0,1987.0,67.0,1.0,1533.0,1,0.44046543877170174,0.4037791231515472
170,V1,d09172021,NtP4V,memory_test,0.0,2.0,0.0,38.0,5.0,1.0,1539.0,,0.0,2744.0,0,0.004058841123956042,1.7611600520086508
171,V1,d09172021,NtP4V,memory_test,0.0,3.0,1.0,39.0,38.0,0.0,1775.0,39.0,,,0,0.2339516023848221,
172,V1,d09172021,NtP4V,memory_test,1.0,4.0,1.0,49.0,40.0,1.0,1432.0,49.0,0.0,1744.0,1,-0.10017219893923322,0.6402839753306131
173,V1,d09172021,NtP4V,memory_test,0.0,5.0,0.0,67.0,20.0,1.0,1418.0,,0.0,1432.0,0,-0.11380990511572528,0.2905706394070654
174,V1,d09172021,NtP4V,memory_test,0.0,6.0,1.0,69.0,48.0,1.0,1487.0,69.0,0.0,1448.0,1,-0.04659549610301444,0.308504656633914
175,V1,d09172021,NtP4V,memory_test,0.0,7.0,0.0,48.0,39.0,1.0,1177.0,,0.0,670.0,0,-0.3485732757253385,-0.5635369310215992
176,V1,d09172021,NtP4V,memory_test,1.0,8.0,1.0,16.0,31.0,0.0,1470.0,31.0,,,0,-0.06315556788875479,
177,V1,d09172021,NtP4V,memory_test,1.0,9.0,1.0,59.0,56.0,1.0,972.0,59.0,1.0,892.0,1,-0.5482682590239721,-0.3147024419990749
178,V1,d09172021,NtP4V,memory_test,1.0,10.0,0.0,56.0,49.0,1.0,1169.0,,1.0,918.0,0,-0.35636625068333394,-0.2855596640054459
179,V1,d09172021,NtP4V,memory_test,0.0,11.0,0.0,19.0,29.0,0.0,1234.0,,,,1,-0.2930483291496208,
180,V1,d09172021,NtP4V,memory_test,1.0,12.0,0.0,16.0,11.0,1.0,1336.0,,0.0,525.0,0,-0.19368789843517872,-0.7260639621399146
181,V1,d09172021,NtP4V,memory_test,0.0,13.0,1.0,20.0,65.0,1.0,1841.0,65.0,0.0,784.0,1,0.2982436457882846,-0.4357570582803029
182,V1,d09172021,NtP4V,memory_test,1.0,14.0,1.0,43.0,22.0,1.0,1210.0,43.0,1.0,573.0,1,-0.3164272540236072,-0.6722619104593689
183,V1,d09172021,NtP4V,memory_test,1.0,15.0,0.0,31.0,40.0,0.0,1211.0,,,,1,-0.3154531321538578,
184,V1,d09172021,NtP4V,memory_test,1.0,16.0,0.0,10.0,43.0,0.0,914.0,,,,1,-0.6047673274694392,
185,V1,d09172021,NtP4V,memory_test,1.0,17.0,0.0,14.0,22.0,1.0,894.0,,1.0,542.0,0,-0.6242497648644278,-0.707009068836388
186,V1,d09172021,NtP4V,memory_test,1.0,18.0,0.0,59.0,6.0,1.0,927.0,,1.0,438.0,0,-0.5921037431626965,-0.8235801808109039
187,V1,d09172021,NtP4V,memory_test,0.0,19.0,1.0,19.0,64.0,1.0,1815.0,19.0,0.0,1291.0,1,0.2729164771747994,0.1325271125954621
188,V1,d09172021,NtP4V,memory_test,1.0,20.0,1.0,10.0,11.0,1.0,1480.0,11.0,0.0,336.0,1,-0.05341434919126047,-0.9379095406320638
189,V1,d09172021,NtP4V,memory_test,0.0,21.0,1.0,5.0,66.0,0.0,654.0,5.0,,,0,-0.8580390136042916,
190,V1,d09172021,NtP4V,memory_test,1.0,22.0,1.0,14.0,6.0,1.0,1090.0,14.0,1.0,420.0,1,-0.4333218783935391,-0.8437559501911086
191,V1,d09172021,NtP4V,memory_test,0.0,23.0,0.0,64.0,69.0,0.0,1722.0,,,,1,0.18232314328810212,
192,V1,d09172021,UmcnU,memory_test,0.0,0.0,0.0,34.0,3.0,0.0,2236.0,,,,1,-0.05647153112084693,
193,V1,d09172021,UmcnU,memory_test,1.0,1.0,0.0,15.0,2.0,1.0,3448.0,,0.0,10068.0,0,0.8913899214141743,3.3822539301072405
194,V1,d09172021,UmcnU,memory_test,0.0,2.0,1.0,19.0,60.0,1.0,2420.0,60.0,0.0,1918.0,1,0.08742822734981638,-0.11776124683869818
195,V1,d09172021,UmcnU,memory_test,1.0,3.0,0.0,29.0,36.0,0.0,2574.0,,,,1,0.2078660686785237,
196,V1,d09172021,UmcnU,memory_test,0.0,4.0,1.0,24.0,44.0,0.0,3771.0,24.0,,,0,1.1439965626425672,
197,V1,d09172021,UmcnU,memory_test,0.0,5.0,0.0,24.0,42.0,0.0,3732.0,,,,1,1.113496070358024,
198,V1,d09172021,UmcnU,memory_test,0.0,6.0,0.0,44.0,5.0,1.0,1596.0,,0.0,1739.0,0,-0.5569924301492409,-0.19463274581702006
199,V1,d09172021,UmcnU,memory_test,0.0,7.0,1.0,5.0,23.0,1.0,1432.0,5.0,1.0,1546.0,1,-0.6852509105252671,-0.2775165408048196
200,V1,d09172021,UmcnU,memory_test,0.0,8.0,1.0,46.0,34.0,0.0,2460.0,34.0,,,0,0.118710783539091,
201,V1,d09172021,UmcnU,memory_test,1.0,9.0,1.0,29.0,41.0,1.0,1496.0,41.0,0.0,1250.0,1,-0.6351988206224275,-0.4046336564337764
202,V1,d09172021,UmcnU,memory_test,0.0,10.0,1.0,3.0,14.0,1.0,2405.0,14.0,1.0,2765.0,1,0.07569726877883838,0.24598266173470185
203,V1,d09172021,UmcnU,memory_test,1.0,11.0,1.0,1.0,6.0,1.0,2241.0,1.0,1.0,1451.0,1,-0.0525612115971876,-0.3183142637262753
204,V1,d09172021,UmcnU,memory_test,0.0,12.0,1.0,42.0,66.0,1.0,980.0,66.0,1.0,972.0,1,-1.0387437954640704,-0.5240206771934047
205,V1,d09172021,UmcnU,memory_test,1.0,13.0,0.0,1.0,63.0,1.0,2889.0,,1.0,1484.0,0,0.4542161986690614,-0.30414242313250645
206,V1,d09172021,UmcnU,memory_test,1.0,14.0,1.0,43.0,20.0,1.0,7069.0,43.0,0.0,1094.0,1,3.72324332044826,-0.4716278119679563
207,V1,d09172021,UmcnU,memory_test,1.0,15.0,0.0,41.0,20.0,1.0,1589.0,,1.0,2449.0,0,-0.562466877482364,0.1102765518064912
208,V1,d09172021,UmcnU,memory_test,1.0,16.0,1.0,7.0,2.0,1.0,1144.0,2.0,0.0,1058.0,1,-0.9104853150880444,-0.4870880017066132
209,V1,d09172021,UmcnU,memory_test,1.0,17.0,1.0,36.0,63.0,0.0,1373.0,36.0,,,0,-0.731392680904447,
210,V1,d09172021,UmcnU,memory_test,0.0,18.0,0.0,23.0,14.0,0.0,1823.0,,,,1,-0.37946392377510746,
211,V1,d09172021,UmcnU,memory_test,1.0,19.0,1.0,15.0,26.0,0.0,2403.0,26.0,,,0,0.07413314096937465,
212,V1,d09172021,UmcnU,memory_test,0.0,20.0,0.0,66.0,19.0,0.0,1493.0,,,,1,-0.6375450123366232,
213,V1,d09172021,UmcnU,memory_test,1.0,21.0,0.0,26.0,6.0,0.0,1942.0,,,,1,-0.28639831911201546,
214,V1,d09172021,UmcnU,memory_test,1.0,22.0,0.0,7.0,43.0,1.0,1351.0,,1.0,1862.0,0,-0.7485980868085481,-0.1418104308766089
215,V1,d09172021,UmcnU,memory_test,0.0,23.0,0.0,46.0,60.0,1.0,1530.0,,0.0,1035.0,0,-0.6086086478615441,-0.4969653451507551
216,V1,d09142021,OvCTN,memory_test,1.0,0.0,1.0,54.0,0.0,0.0,5459.0,54.0,,,0,3.0630328215614004,
217,V1,d09142021,OvCTN,memory_test,0.0,1.0,1.0,47.0,66.0,1.0,3007.0,47.0,1.0,3794.0,1,0.6979067212472113,2.705930579285528
218,V1,d09142021,OvCTN,memory_test,1.0,2.0,0.0,0.0,27.0,0.0,3059.0,,,,1,0.7480643710091761,
219,V1,d09142021,OvCTN,memory_test,0.0,3.0,0.0,1.0,19.0,0.0,2282.0,,,,1,-0.0014066648571065324,
220,V1,d09142021,OvCTN,memory_test,0.0,4.0,1.0,10.0,67.0,1.0,1996.0,10.0,1.0,1295.0,1,-0.2772737385479133,0.00997901240242844
221,V1,d09142021,OvCTN,memory_test,0.0,5.0,0.0,2.0,67.0,1.0,4196.0,,1.0,1891.0,0,1.8447806744582924,0.6529510547643042
222,V1,d09142021,OvCTN,memory_test,1.0,6.0,0.0,7.0,55.0,0.0,1790.0,,,,1,-0.4759751972203126,
223,V1,d09142021,OvCTN,memory_test,1.0,7.0,1.0,64.0,13.0,0.0,1651.0,13.0,,,0,-0.6100504533147956,
224,V1,d09142021,OvCTN,memory_test,1.0,8.0,1.0,55.0,20.0,0.0,1990.0,55.0,,,0,-0.28306115967429385,
225,V1,d09142021,OvCTN,memory_test,0.0,9.0,0.0,58.0,35.0,0.0,2332.0,,,,1,0.04682184452939815,
226,V1,d09142021,OvCTN,memory_test,0.0,10.0,0.0,47.0,8.0,1.0,3991.0,,1.0,659.0,0,1.647043785973623,-0.6761455160240026
227,V1,d09142021,OvCTN,memory_test,0.0,11.0,1.0,8.0,4.0,1.0,1851.0,4.0,0.0,1155.0,1,-0.4171364157687769,-0.14105468882351552
228,V1,d09142021,OvCTN,memory_test,0.0,12.0,1.0,19.0,58.0,1.0,1602.0,19.0,1.0,1915.0,1,-0.6573143925135702,0.6788425464030373
229,V1,d09142021,OvCTN,memory_test,1.0,13.0,0.0,20.0,54.0,0.0,1135.0,,,,1,-1.107768670183524,
230,V1,d09142021,OvCTN,memory_test,1.0,14.0,1.0,46.0,38.0,0.0,2873.0,46.0,,,0,0.5686543160913787,
231,V1,d09142021,OvCTN,memory_test,1.0,15.0,0.0,46.0,64.0,0.0,1446.0,,,,1,-0.8077873417994648,
232,V1,d09142021,OvCTN,memory_test,1.0,16.0,0.0,15.0,38.0,1.0,1840.0,,1.0,467.0,0,-0.4277466878338079,-0.8832774491338686
233,V1,d09142021,OvCTN,memory_test,0.0,17.0,1.0,1.0,2.0,1.0,1801.0,2.0,0.0,1293.0,1,-0.4653649251552815,0.007821388099200669
234,V1,d09142021,OvCTN,memory_test,1.0,18.0,1.0,27.0,21.0,0.0,1777.0,27.0,,,0,-0.4885146096608037,
235,V1,d09142021,OvCTN,memory_test,1.0,19.0,1.0,15.0,7.0,1.0,1173.0,15.0,1.0,839.0,1,-1.0711150030497802,-0.4819593287335033
236,V1,d09142021,OvCTN,memory_test,0.0,20.0,0.0,62.0,4.0,1.0,1732.0,,0.0,981.0,0,-0.531920268108658,-0.3287680032043316
237,V1,d09142021,OvCTN,memory_test,0.0,21.0,0.0,10.0,66.0,1.0,2195.0,,1.0,555.0,0,-0.08532427118962467,-0.7883419797918467
238,V1,d09142021,OvCTN,memory_test,0.0,22.0,1.0,35.0,62.0,1.0,1349.0,35.0,1.0,585.0,1,-0.9013506500092838,-0.7559776152434302
239,V1,d09142021,OvCTN,memory_test,1.0,23.0,0.0,13.0,21.0,0.0,2276.0,,,,1,-0.007194085983487094,
240,V1,d09172021,bOPuu,memory_test,0.0,0.0,1.0,43.0,32.0,0.0,2727.0,32.0,,,0,0.5727170575031466,
241,V1,d09172021,bOPuu,memory_test,0.0,1.0,1.0,67.0,21.0,1.0,2867.0,67.0,1.0,4000.0,1,0.7564239131795736,2.773504485168898
242,V1,d09172021,bOPuu,memory_test,1.0,2.0,0.0,13.0,5.0,0.0,1621.0,,,,1,-0.8785671023406261,
243,V1,d09172021,bOPuu,memory_test,0.0,3.0,0.0,51.0,39.0,1.0,2633.0,,1.0,1438.0,0,0.4493710258346886,0.2279152991284628
244,V1,d09172021,bOPuu,memory_test,0.0,4.0,1.0,60.0,3.0,0.0,2643.0,60.0,,,0,0.4624929440972905,
245,V1,d09172021,bOPuu,memory_test,1.0,5.0,1.0,56.0,13.0,1.0,1910.0,13.0,0.0,1350.0,1,-0.4993436645514305,0.14047898048226515
246,V1,d09172021,bOPuu,memory_test,0.0,6.0,1.0,31.0,69.0,0.0,3094.0,69.0,,,0,1.0542914577406373,
247,V1,d09172021,bOPuu,memory_test,1.0,7.0,1.0,63.0,0.0,1.0,1460.0,63.0,1.0,1098.0,1,-1.089829986368517,-0.1099068410954826
248,V1,d09172021,bOPuu,memory_test,1.0,8.0,0.0,20.0,68.0,0.0,2150.0,,,,1,-0.18441762624898436,
249,V1,d09172021,bOPuu,memory_test,0.0,9.0,0.0,21.0,69.0,0.0,1238.0,,,,1,-1.3811365717982798,
250,V1,d09172021,bOPuu,memory_test,0.0,10.0,0.0,32.0,50.0,1.0,2763.0,,1.0,2403.0,0,0.6199559632485135,1.1867340206464252
251,V1,d09172021,bOPuu,memory_test,0.0,11.0,0.0,43.0,67.0,0.0,1876.0,,,,1,-0.5439581866442771,
252,V1,d09172021,bOPuu,memory_test,0.0,12.0,0.0,7.0,3.0,0.0,2368.0,,,,1,0.1016401918757376,
253,V1,d09172021,bOPuu,memory_test,1.0,13.0,0.0,36.0,56.0,0.0,2623.0,,,,1,0.4362491075720866,
254,V1,d09172021,bOPuu,memory_test,1.0,14.0,1.0,57.0,5.0,1.0,1379.0,57.0,1.0,420.0,1,-1.1961175242955926,-0.7835639324832324
255,V1,d09172021,bOPuu,memory_test,1.0,15.0,1.0,68.0,16.0,1.0,3329.0,68.0,1.0,402.0,1,1.3626565369117825,-0.8014486340245001
256,V1,d09172021,bOPuu,memory_test,1.0,16.0,0.0,16.0,63.0,0.0,2046.0,,,,1,-0.3208855761800443,
257,V1,d09172021,bOPuu,memory_test,1.0,17.0,0.0,2.0,57.0,1.0,2641.0,,0.0,785.0,0,0.4598685604447701,-0.4209019290075264
258,V1,d09172021,bOPuu,memory_test,0.0,18.0,1.0,39.0,7.0,1.0,4628.0,7.0,0.0,1061.0,1,3.0671937192237717,-0.1466698387080884
259,V1,d09172021,bOPuu,memory_test,1.0,19.0,1.0,17.0,2.0,1.0,2136.0,17.0,1.0,477.0,1,-0.202788311816627,-0.726929044269218
260,V1,d09172021,bOPuu,memory_test,1.0,20.0,0.0,17.0,0.0,0.0,1961.0,,,,1,-0.4324218814121607,
261,V1,d09172021,bOPuu,memory_test,0.0,21.0,0.0,31.0,60.0,1.0,1525.0,,0.0,570.0,0,-1.0045375176616045,-0.6345247529726683
262,V1,d09172021,bOPuu,memory_test,0.0,22.0,1.0,51.0,50.0,1.0,1677.0,51.0,1.0,1157.0,1,-0.8050843600700553,-0.051284763821327364
263,V1,d09172021,bOPuu,memory_test,1.0,23.0,1.0,20.0,36.0,1.0,1678.0,36.0,0.0,551.0,1,-0.8037721682437952,-0.6534030490440064
264,V1,d09142021,skpJF,memory_test,1.0,0.0,1.0,31.0,2.0,1.0,3941.0,2.0,0.0,3792.0,1,1.9356240988487192,3.0719613010304467
265,V1,d09142021,skpJF,memory_test,0.0,1.0,1.0,44.0,68.0,1.0,2819.0,68.0,0.0,1576.0,1,0.4897853822385026,-0.06904876433006286
266,V1,d09142021,skpJF,memory_test,0.0,2.0,0.0,17.0,48.0,1.0,2701.0,,1.0,1791.0,0,0.3377274779960735,0.23569724832901184
267,V1,d09142021,skpJF,memory_test,0.0,3.0,0.0,60.0,44.0,0.0,2013.0,,,,1,-0.5488474213157171,
268,V1,d09142021,skpJF,memory_test,1.0,4.0,0.0,1.0,33.0,0.0,3478.0,,,,1,1.3389901186432556,
269,V1,d09142021,skpJF,memory_test,0.0,5.0,1.0,51.0,53.0,1.0,1572.0,51.0,1.0,2009.0,1,-1.1171316227641177,0.5446955309321667
270,V1,d09142021,skpJF,memory_test,1.0,6.0,1.0,22.0,11.0,0.0,2637.0,11.0,,,0,0.2552553943391627,
271,V1,d09142021,skpJF,memory_test,0.0,7.0,0.0,51.0,57.0,1.0,1836.0,,1.0,1551.0,0,-0.7769342776793607,-0.10448434719739716
272,V1,d09142021,skpJF,memory_test,0.0,8.0,1.0,63.0,48.0,0.0,2485.0,63.0,,,0,0.05938419565399972,
273,V1,d09142021,skpJF,memory_test,0.0,9.0,1.0,60.0,43.0,1.0,2070.0,60.0,1.0,1255.0,1,-0.4753957218087809,-0.5240416483466349
274,V1,d09142021,skpJF,memory_test,0.0,10.0,1.0,57.0,61.0,1.0,3309.0,61.0,0.0,1847.0,1,1.1212122727367255,0.3150729539518406
275,V1,d09142021,skpJF,memory_test,0.0,11.0,0.0,41.0,61.0,0.0,2565.0,,,,1,0.16247430022513815,
276,V1,d09142021,skpJF,memory_test,0.0,12.0,0.0,53.0,68.0,1.0,2358.0,,0.0,1745.0,0,-0.10427134535268252,0.1704957758531168
277,V1,d09142021,skpJF,memory_test,1.0,13.0,0.0,11.0,65.0,0.0,1997.0,,,,1,-0.5694654422299447,
278,V1,d09142021,skpJF,memory_test,1.0,14.0,1.0,62.0,1.0,1.0,1685.0,62.0,1.0,1128.0,1,-0.9715168500573844,-0.704054409312693
279,V1,d09142021,skpJF,memory_test,0.0,15.0,0.0,43.0,63.0,0.0,1605.0,,,,1,-1.074606954628523,
280,V1,d09142021,skpJF,memory_test,1.0,16.0,1.0,9.0,49.0,0.0,3878.0,49.0,,,0,1.854440641498948,
281,V1,d09142021,skpJF,memory_test,1.0,17.0,1.0,26.0,21.0,1.0,1724.0,21.0,0.0,1521.0,1,-0.9212604240789546,-0.14700704663819827
282,V1,d09142021,skpJF,memory_test,1.0,18.0,0.0,21.0,9.0,0.0,3451.0,,,,1,1.3041972083504962,
283,V1,d09142021,skpJF,memory_test,1.0,19.0,0.0,2.0,26.0,0.0,2495.0,,,,1,0.07227045872539202,
284,V1,d09142021,skpJF,memory_test,1.0,20.0,0.0,22.0,49.0,1.0,1517.0,,0.0,1105.0,0,-1.1880060696567754,-0.7366551455506405
285,V1,d09142021,skpJF,memory_test,1.0,21.0,0.0,31.0,62.0,1.0,3237.0,,0.0,1441.0,0,1.028431178622701,-0.2604009118136679
286,V1,d09142021,skpJF,memory_test,0.0,22.0,1.0,17.0,41.0,1.0,1483.0,17.0,1.0,1113.0,1,-1.2318193640995092,-0.7253157590330935
287,V1,d09142021,skpJF,memory_test,1.0,23.0,1.0,33.0,65.0,1.0,1678.0,33.0,1.0,872.0,1,-0.9805372342073592,-1.066914777874196
288,V1,d09142021,Pj09s,memory_test,0.0,0.0,1.0,39.0,64.0,0.0,3084.0,64.0,,,0,3.4852675037681653,
289,V1,d09142021,Pj09s,memory_test,0.0,1.0,0.0,29.0,39.0,1.0,1109.0,,0.0,4004.0,0,-0.8288807655920578,2.806624071957156
290,V1,d09142021,Pj09s,memory_test,1.0,2.0,1.0,33.0,68.0,1.0,2010.0,68.0,0.0,1094.0,1,1.139244596784429,-0.092283241241791
291,V1,d09142021,Pj09s,memory_test,0.0,3.0,0.0,42.0,64.0,0.0,1888.0,,,,1,0.8727503745758477,
292,V1,d09142021,Pj09s,memory_test,1.0,4.0,0.0,36.0,23.0,0.0,1498.0,,,,1,0.0208426150566139,
293,V1,d09142021,Pj09s,memory_test,1.0,5.0,1.0,62.0,32.0,1.0,1300.0,32.0,1.0,1459.0,1,-0.4116644013146895,0.2713254080082487
294,V1,d09142021,Pj09s,memory_test,1.0,6.0,0.0,50.0,62.0,0.0,1738.0,,,,1,0.545093543991527,
295,V1,d09142021,Pj09s,memory_test,1.0,7.0,0.0,3.0,32.0,1.0,1277.0,,0.0,955.0,0,-0.4619051153376186,-0.2307533843808472
296,V1,d09142021,Pj09s,memory_test,0.0,8.0,1.0,29.0,5.0,0.0,1549.0,29.0,,,0,0.13224593745528293,
297,V1,d09142021,Pj09s,memory_test,1.0,9.0,1.0,38.0,36.0,0.0,1581.0,38.0,,,0,0.20214606131327134,
298,V1,d09142021,Pj09s,memory_test,0.0,10.0,1.0,12.0,44.0,1.0,1353.0,44.0,1.0,1290.0,1,-0.2958923211748961,0.10296962246507964
299,V1,d09142021,Pj09s,memory_test,0.0,11.0,0.0,18.0,67.0,1.0,1420.0,,0.0,476.0,0,-0.14953893684723288,-0.7079274747665157
300,V1,d09142021,Pj09s,memory_test,0.0,12.0,1.0,20.0,42.0,1.0,2212.0,20.0,1.0,876.0,1,1.5804891286379803,-0.30945224271167776
301,V1,d09142021,Pj09s,memory_test,1.0,13.0,1.0,56.0,23.0,0.0,1585.0,23.0,,,0,0.21088357679551992,
302,V1,d09142021,Pj09s,memory_test,0.0,14.0,0.0,7.0,20.0,1.0,1337.0,,1.0,297.0,0,-0.3308423831038903,-0.8862451411110558
303,V1,d09142021,Pj09s,memory_test,1.0,15.0,0.0,38.0,31.0,0.0,1304.0,,,,1,-0.4029268858324409,
304,V1,d09142021,Pj09s,memory_test,0.0,16.0,1.0,18.0,7.0,0.0,1163.0,18.0,,,0,-0.7109243065817024,
305,V1,d09142021,Pj09s,memory_test,1.0,17.0,1.0,3.0,46.0,1.0,1470.0,46.0,0.0,778.0,1,-0.04031999331912597,-0.40707867456511293
306,V1,d09142021,Pj09s,memory_test,0.0,18.0,0.0,44.0,5.0,0.0,1088.0,,,,1,-0.8747527218738627,
307,V1,d09142021,Pj09s,memory_test,0.0,19.0,0.0,12.0,0.0,1.0,1410.0,,1.0,1287.0,0,-0.17138272555285425,0.09998105822466836
308,V1,d09142021,Pj09s,memory_test,0.0,20.0,1.0,67.0,0.0,0.0,1048.0,0.0,,,0,-0.9621278766963482,
309,V1,d09142021,Pj09s,memory_test,1.0,21.0,0.0,56.0,68.0,0.0,1052.0,,,,1,-0.9533903612140996,
310,V1,d09142021,Pj09s,memory_test,1.0,22.0,1.0,31.0,50.0,0.0,1185.0,50.0,,,0,-0.6628679714293353,
311,V1,d09142021,Pj09s,memory_test,1.0,23.0,0.0,46.0,33.0,1.0,1062.0,,1.0,537.0,0,-0.9315465725084784,-0.6471600018781529
312,V1,d09172021,MlgU9,memory_test,0.0,0.0,0.0,44.0,43.0,1.0,3269.0,,1.0,2032.0,0,1.7714365489149375,1.7111612626702117
313,V1,d09172021,MlgU9,memory_test,1.0,1.0,0.0,20.0,26.0,0.0,1742.0,,,,1,-0.03806833289331373,
314,V1,d09172021,MlgU9,memory_test,0.0,2.0,1.0,69.0,37.0,1.0,2478.0,69.0,0.0,1120.0,1,0.8340964300476641,0.4192911703231645
315,V1,d09172021,MlgU9,memory_test,1.0,3.0,0.0,57.0,19.0,1.0,1061.0,,0.0,360.0,0,-0.8450577399079955,-0.6572672399660416
316,V1,d09172021,MlgU9,memory_test,0.0,4.0,0.0,7.0,34.0,1.0,1310.0,,1.0,1608.0,0,-0.5499911285325833,1.11055499166676
317,V1,d09172021,MlgU9,memory_test,1.0,5.0,1.0,66.0,60.0,1.0,806.0,60.0,0.0,577.0,1,-1.147234390111731,-0.349881483343992
318,V1,d09172021,MlgU9,memory_test,1.0,6.0,0.0,2.0,55.0,1.0,2924.0,,1.0,464.0,0,1.3626093162863542,-0.5099487206633082
319,V1,d09172021,MlgU9,memory_test,0.0,7.0,0.0,68.0,65.0,1.0,3181.0,,1.0,352.0,0,1.6671559794328639,-0.6685994337585597
320,V1,d09172021,MlgU9,memory_test,1.0,8.0,1.0,48.0,2.0,1.0,909.0,2.0,0.0,511.0,1,-1.0251787235588496,-0.4433720821322652
321,V1,d09172021,MlgU9,memory_test,1.0,9.0,1.0,25.0,19.0,0.0,2270.0,19.0,,,0,0.5876150839991268,
322,V1,d09172021,MlgU9,memory_test,0.0,10.0,0.0,17.0,37.0,0.0,2950.0,,,,1,1.3934194845424213,
323,V1,d09172021,MlgU9,memory_test,1.0,11.0,1.0,21.0,26.0,1.0,1341.0,21.0,1.0,328.0,1,-0.5132559279195801,-0.7025960151361135
324,V1,d09172021,MlgU9,memory_test,0.0,12.0,1.0,44.0,7.0,1.0,2324.0,44.0,1.0,376.0,1,0.6516054334540354,-0.6346028523810058
325,V1,d09172021,MlgU9,memory_test,0.0,13.0,0.0,22.0,46.0,1.0,3349.0,,0.0,281.0,0,1.8662370666259132,-0.7691726536671565
326,V1,d09172021,MlgU9,memory_test,0.0,14.0,1.0,65.0,22.0,1.0,1397.0,65.0,1.0,264.0,1,-0.446895565521897,-0.7932535654762572
327,V1,d09172021,MlgU9,memory_test,1.0,15.0,0.0,48.0,60.0,1.0,1214.0,,0.0,648.0,0,-0.6637517497857542,-0.2493082634353951
328,V1,d09172021,MlgU9,memory_test,0.0,16.0,1.0,46.0,43.0,1.0,1366.0,46.0,1.0,321.0,1,-0.4836307661349002,-0.7125116847045667
329,V1,d09172021,MlgU9,memory_test,1.0,17.0,0.0,21.0,25.0,0.0,1686.0,,,,1,-0.1044286952909968,
330,V1,d09172021,MlgU9,memory_test,0.0,18.0,0.0,69.0,67.0,1.0,1039.0,,0.0,1904.0,0,-0.8711278822785139,1.5298461619899246
331,V1,d09172021,MlgU9,memory_test,0.0,19.0,1.0,17.0,68.0,1.0,869.0,17.0,0.0,287.0,1,-1.0725789824143377,-0.7606735083227679
332,V1,d09172021,MlgU9,memory_test,0.0,20.0,1.0,34.0,67.0,1.0,1021.0,34.0,0.0,1688.0,1,-0.8924579987634834,1.2238769295919396
333,V1,d09172021,MlgU9,memory_test,1.0,21.0,1.0,47.0,57.0,1.0,1078.0,47.0,1.0,231.0,1,-0.8249126298944132,-0.8399988648703938
334,V1,d09172021,MlgU9,memory_test,1.0,22.0,0.0,66.0,47.0,1.0,1230.0,,1.0,2304.0,0,-0.6447916462435591,2.0964558516158225
335,V1,d09172021,MlgU9,memory_test,1.0,23.0,1.0,20.0,55.0,0.0,1765.0,20.0,,,0,-0.010813184051408182,
336,V1,d09142021,OKSBe,memory_test,0.0,0.0,1.0,26.0,39.0,1.0,2051.0,26.0,0.0,2695.0,1,2.3429178355489517,3.0785773112676043
337,V1,d09142021,OKSBe,memory_test,1.0,1.0,0.0,44.0,11.0,1.0,1448.0,,1.0,451.0,0,1.3144445609777184,-0.2416697985455185
338,V1,d09142021,OKSBe,memory_test,0.0,2.0,0.0,37.0,57.0,0.0,450.0,,,,1,-0.3877384042330468,
339,V1,d09142021,OKSBe,memory_test,0.0,3.0,0.0,34.0,2.0,1.0,1443.0,,1.0,377.0,0,1.3059165902101295,-0.35116101339675343
340,V1,d09142021,OKSBe,memory_test,1.0,4.0,1.0,4.0,20.0,0.0,316.0,20.0,,,0,-0.6162880208044321,
341,V1,d09142021,OKSBe,memory_test,0.0,5.0,1.0,34.0,59.0,0.0,1401.0,59.0,,,0,1.2342816357623818,
342,V1,d09142021,OKSBe,memory_test,0.0,6.0,1.0,2.0,57.0,0.0,438.0,2.0,,,0,-0.4082055340752604,
343,V1,d09142021,OKSBe,memory_test,1.0,7.0,0.0,18.0,4.0,1.0,215.0,,0.0,417.0,0,-0.78855303030973,-0.29197657293662643
344,V1,d09142021,OKSBe,memory_test,1.0,8.0,1.0,67.0,44.0,1.0,583.0,67.0,1.0,275.0,1,-0.1608943818151793,-0.5020813365700771
345,V1,d09142021,OKSBe,memory_test,1.0,9.0,1.0,24.0,56.0,0.0,169.0,56.0,,,0,-0.8670103613715489,
346,V1,d09142021,OKSBe,memory_test,0.0,10.0,1.0,62.0,17.0,0.0,1342.0,17.0,,,0,1.1336515807048315,
347,V1,d09142021,OKSBe,memory_test,0.0,11.0,0.0,62.0,59.0,1.0,302.0,,0.0,285.0,0,-0.6401663389536814,-0.4872852264550455
348,V1,d09142021,OKSBe,memory_test,0.0,12.0,0.0,39.0,42.0,1.0,738.0,,0.0,430.0,0,0.10347271198007983,-0.2727416297870852
349,V1,d09142021,OKSBe,memory_test,1.0,13.0,0.0,47.0,56.0,0.0,498.0,,,,1,-0.3058698848641924,
350,V1,d09142021,OKSBe,memory_test,0.0,14.0,1.0,29.0,37.0,0.0,598.0,37.0,,,0,-0.13531046951241227,
351,V1,d09142021,OKSBe,memory_test,1.0,15.0,0.0,67.0,22.0,1.0,126.0,,1.0,396.0,0,-0.9403509099728142,-0.3230484041781931
352,V1,d09142021,OKSBe,memory_test,0.0,16.0,1.0,42.0,25.0,1.0,372.0,42.0,1.0,367.0,1,-0.5207747482074353,-0.3659571235117852
353,V1,d09142021,OKSBe,memory_test,1.0,17.0,0.0,15.0,24.0,0.0,1960.0,,,,1,2.1877087675788323,
354,V1,d09142021,OKSBe,memory_test,0.0,18.0,0.0,17.0,25.0,1.0,356.0,,0.0,339.0,0,-0.5480642546637201,-0.407386231833874
355,V1,d09142021,OKSBe,memory_test,1.0,19.0,1.0,22.0,18.0,1.0,332.0,18.0,0.0,420.0,1,-0.5889985143481473,-0.2875377399021169
356,V1,d09142021,OKSBe,memory_test,1.0,20.0,0.0,69.0,20.0,1.0,298.0,,1.0,920.0,0,-0.6469887155677525,0.4522677658494702
357,V1,d09142021,OKSBe,memory_test,1.0,21.0,1.0,15.0,69.0,0.0,317.0,15.0,,,0,-0.6145824266509143,
358,V1,d09142021,OKSBe,memory_test,1.0,22.0,1.0,11.0,47.0,0.0,66.0,11.0,,,0,-1.0426865591838823,
359,V1,d09142021,OKSBe,memory_test,0.0,23.0,0.0,26.0,29.0,0.0,437.0,,,,1,-0.4099111282287782,
360,V1,d09142021,DyHLP,memory_test,1.0,0.0,0.0,44.0,68.0,0.0,2598.0,,,,1,-0.2786802370751892,
361,V1,d09142021,DyHLP,memory_test,1.0,1.0,1.0,46.0,18.0,1.0,3058.0,18.0,0.0,3502.0,1,0.0367098005783308,2.2188184615125186
362,V1,d09142021,DyHLP,memory_test,1.0,2.0,1.0,47.0,1.0,0.0,2570.0,1.0,,,0,-0.29787789154105565,
363,V1,d09142021,DyHLP,memory_test,0.0,3.0,0.0,42.0,11.0,0.0,1731.0,,,,1,-0.8731218950004106,
364,V1,d09142021,DyHLP,memory_test,0.0,4.0,0.0,39.0,0.0,0.0,3292.0,,,,1,0.19714734147164314,
365,V1,d09142021,DyHLP,memory_test,1.0,5.0,0.0,7.0,1.0,0.0,2045.0,,,,1,-0.6578339127760513,
366,V1,d09142021,DyHLP,memory_test,0.0,6.0,0.0,66.0,35.0,0.0,4949.0,,,,1,1.3332371075409533,
367,V1,d09142021,DyHLP,memory_test,0.0,7.0,0.0,54.0,22.0,1.0,5757.0,,1.0,1001.0,0,1.8872265649845277,-0.0919680671769498
368,V1,d09142021,DyHLP,memory_test,1.0,8.0,1.0,37.0,6.0,1.0,2258.0,37.0,1.0,578.0,1,-0.5117946127321388,-0.482796816331546
369,V1,d09142021,DyHLP,memory_test,1.0,9.0,0.0,29.0,6.0,0.0,5878.0,,,,1,1.9701878574977358,
370,V1,d09142021,DyHLP,memory_test,1.0,10.0,0.0,47.0,18.0,1.0,6667.0,,0.0,1422.0,0,2.511150335125187,0.2970127919107216
371,V1,d09142021,DyHLP,memory_test,0.0,11.0,1.0,0.0,42.0,0.0,1635.0,42.0,,,0,-0.938942424597667,
372,V1,d09142021,DyHLP,memory_test,0.0,12.0,1.0,66.0,39.0,1.0,2744.0,39.0,0.0,757.0,1,-0.1785781816460285,-0.31741065534177604
373,V1,d09142021,DyHLP,memory_test,0.0,13.0,0.0,40.0,43.0,0.0,2762.0,,,,1,-0.16623683234654293,
374,V1,d09142021,DyHLP,memory_test,1.0,14.0,1.0,7.0,44.0,1.0,4177.0,44.0,0.0,3404.0,1,0.8039303486963502,2.128271848233203
375,V1,d09142021,DyHLP,memory_test,0.0,15.0,1.0,40.0,35.0,1.0,3328.0,35.0,0.0,694.0,1,0.2218300400706143,-0.3756191924499074
376,V1,d09142021,DyHLP,memory_test,0.0,16.0,1.0,22.0,8.0,1.0,2383.0,8.0,0.0,470.0,1,-0.4260907981523779,-0.5825828799454855
377,V1,d09142021,DyHLP,memory_test,1.0,17.0,1.0,32.0,68.0,1.0,2055.0,32.0,1.0,497.0,1,-0.6509776076096704,-0.5576363640420007
378,V1,d09142021,DyHLP,memory_test,0.0,18.0,1.0,54.0,11.0,1.0,1189.0,54.0,1.0,269.0,1,-1.2447336350182538,-0.7682958316714283
379,V1,d09142021,DyHLP,memory_test,1.0,19.0,0.0,14.0,32.0,0.0,1679.0,,,,1,-0.9087746818655912,
380,V1,d09142021,DyHLP,memory_test,0.0,20.0,1.0,43.0,2.0,1.0,3092.0,43.0,1.0,559.0,1,0.06002123814402576,-0.5003517719673317
381,V1,d09142021,DyHLP,memory_test,1.0,21.0,1.0,14.0,29.0,1.0,2117.0,29.0,0.0,676.0,1,-0.608468515578109,-0.3922502030522306
382,V1,d09142021,DyHLP,memory_test,1.0,22.0,0.0,37.0,46.0,1.0,2090.0,,1.0,478.0,0,-0.6269805395273373,-0.5751913196777863
383,V1,d09142021,DyHLP,memory_test,0.0,23.0,0.0,2.0,8.0,0.0,2053.0,,,,1,-0.6523488686429466,
384,V1,d09172021,ARlDu,memory_test,1.0,0.0,0.0,52.0,63.0,0.0,8858.0,,,,1,2.3988248404146093,
385,V1,d09172021,ARlDu,memory_test,0.0,1.0,1.0,26.0,34.0,1.0,2294.0,26.0,1.0,1231.0,1,-0.3996561061304808,0.12385319763310987
386,V1,d09172021,ARlDu,memory_test,0.0,2.0,0.0,56.0,26.0,0.0,2523.0,,,,1,-0.30202476293139097,
387,V1,d09172021,ARlDu,memory_test,1.0,3.0,0.0,7.0,59.0,0.0,3069.0,,,,1,-0.06924435512919429,
388,V1,d09172021,ARlDu,memory_test,0.0,4.0,0.0,44.0,24.0,0.0,2487.0,,,,1,-0.3173729216875798,
389,V1,d09172021,ARlDu,memory_test,1.0,5.0,1.0,68.0,0.0,1.0,3329.0,0.0,0.0,1387.0,1,0.041603458109947006,0.4622800879809074
390,V1,d09172021,ARlDu,memory_test,1.0,6.0,1.0,22.0,63.0,1.0,5440.0,63.0,0.0,1934.0,1,0.9416024340631288,1.6489436073414536
391,V1,d09172021,ARlDu,memory_test,1.0,7.0,0.0,32.0,22.0,0.0,4012.0,,,,1,0.33279213673430663,
392,V1,d09172021,ARlDu,memory_test,0.0,8.0,1.0,23.0,24.0,1.0,3860.0,23.0,1.0,1821.0,1,0.2679887997637317,1.4038010521536262
393,V1,d09172021,ARlDu,memory_test,0.0,9.0,1.0,3.0,50.0,1.0,1615.0,3.0,1.0,1094.0,1,-0.6891394337819305,-0.1733550329928405
394,V1,d09172021,ARlDu,memory_test,1.0,10.0,0.0,33.0,68.0,0.0,1489.0,,,,1,-0.7428579894285914,
395,V1,d09172021,ARlDu,memory_test,0.0,11.0,0.0,55.0,12.0,1.0,2476.0,,0.0,560.0,0,-0.3220626368630819,-1.3318163114910704
396,V1,d09172021,ARlDu,memory_test,1.0,12.0,1.0,31.0,7.0,0.0,10969.0,7.0,,,0,3.298823816367791,
397,V1,d09172021,ARlDu,memory_test,1.0,13.0,0.0,31.0,0.0,0.0,837.0,,,,1,-1.0208301980128995,
398,V1,d09172021,ARlDu,memory_test,1.0,14.0,0.0,30.0,46.0,0.0,1865.0,,,,1,-0.5825549979750639,
399,V1,d09172021,ARlDu,memory_test,0.0,15.0,0.0,23.0,50.0,0.0,1611.0,,,,1,-0.6908447847548405,
400,V1,d09172021,ARlDu,memory_test,0.0,16.0,1.0,20.0,44.0,1.0,1759.0,44.0,0.0,1452.0,1,-0.6277467987571754,0.6032912922924897
401,V1,d09172021,ARlDu,memory_test,0.0,17.0,0.0,3.0,34.0,0.0,3059.0,,,,1,-0.07350773256146895,
402,V1,d09172021,ARlDu,memory_test,1.0,18.0,1.0,33.0,52.0,0.0,1672.0,33.0,,,0,-0.6648381824179649,
403,V1,d09172021,ARlDu,memory_test,0.0,19.0,1.0,60.0,55.0,1.0,2128.0,60.0,1.0,563.0,1,-0.4704281715062402,-1.3253081020613051
404,V1,d09172021,ARlDu,memory_test,1.0,20.0,1.0,46.0,59.0,1.0,4338.0,46.0,1.0,893.0,1,0.4717782410264607,-0.6094050647871181
405,V1,d09172021,ARlDu,memory_test,0.0,21.0,1.0,12.0,56.0,1.0,1758.0,12.0,1.0,767.0,1,-0.6281731365004029,-0.8827498608372621
406,V1,d09172021,ARlDu,memory_test,0.0,22.0,0.0,20.0,60.0,0.0,2215.0,,,,1,-0.43333678784545065,
407,V1,d09172021,ARlDu,memory_test,1.0,23.0,1.0,30.0,32.0,1.0,3891.0,32.0,0.0,1211.0,1,0.2812052698037832,0.08046513476800762
408,V1,d09142021,BZQe3,memory_test,1.0,0.0,0.0,44.0,40.0,1.0,6525.0,,0.0,3545.0,0,3.968085435563296,1.7364037317550196
409,V1,d09142021,BZQe3,memory_test,1.0,1.0,1.0,45.0,20.0,1.0,2315.0,45.0,0.0,835.0,1,0.9356814904630788,-0.26310936124069
410,V1,d09142021,BZQe3,memory_test,0.0,2.0,1.0,38.0,59.0,1.0,1064.0,38.0,1.0,256.0,1,0.034603738605508194,-0.6903116050947549
411,V1,d09142021,BZQe3,memory_test,1.0,3.0,1.0,39.0,52.0,1.0,1401.0,52.0,1.0,1010.0,1,0.2773401114080672,-0.13398951206200024
412,V1,d09142021,BZQe3,memory_test,1.0,4.0,1.0,25.0,64.0,0.0,1779.0,25.0,,,0,0.5496082090916496,
413,V1,d09142021,BZQe3,memory_test,0.0,5.0,0.0,57.0,12.0,0.0,1897.0,,,,1,0.6346019538711807,
414,V1,d09142021,BZQe3,memory_test,0.0,6.0,0.0,69.0,5.0,0.0,1223.0,,,,1,0.14912920826606274,
415,V1,d09142021,BZQe3,memory_test,1.0,7.0,0.0,25.0,20.0,1.0,1923.0,,1.0,312.0,0,0.6533293891615858,-0.6489932533575742
416,V1,d09142021,BZQe3,memory_test,0.0,8.0,0.0,14.0,22.0,0.0,1834.0,,,,1,0.5892239375905837,
417,V1,d09142021,BZQe3,memory_test,0.0,9.0,1.0,55.0,51.0,0.0,1117.0,51.0,,,0,0.07277889515902637,
418,V1,d09142021,BZQe3,memory_test,0.0,10.0,0.0,51.0,59.0,0.0,812.0,,,,1,-0.14690832651688013,
419,V1,d09142021,BZQe3,memory_test,1.0,11.0,1.0,44.0,28.0,0.0,698.0,28.0,,,0,-0.2290209274055796,
420,V1,d09142021,BZQe3,memory_test,1.0,12.0,1.0,66.0,3.0,0.0,361.0,3.0,,,0,-0.4717573002081386,
421,V1,d09142021,BZQe3,memory_test,1.0,13.0,0.0,60.0,3.0,0.0,68.0,,,,1,-0.6828010902115504,
422,V1,d09142021,BZQe3,memory_test,0.0,14.0,1.0,31.0,12.0,0.0,0.0,12.0,,,0,-0.7317805363556871,
423,V1,d09142021,BZQe3,memory_test,0.0,15.0,1.0,69.0,57.0,0.0,129.0,69.0,,,0,-0.6388636458763691,
424,V1,d09142021,BZQe3,memory_test,1.0,16.0,0.0,52.0,66.0,0.0,84.0,,,,1,-0.6712765146482241,
425,V1,d09142021,BZQe3,memory_test,1.0,17.0,0.0,39.0,45.0,0.0,112.0,,,,1,-0.6511085074124032,
426,V1,d09142021,BZQe3,memory_test,0.0,18.0,1.0,48.0,22.0,0.0,126.0,48.0,,,0,-0.6410245037944927,
427,V1,d09142021,BZQe3,memory_test,1.0,19.0,1.0,40.0,60.0,0.0,232.0,40.0,,,0,-0.5646741906874564,
428,V1,d09142021,BZQe3,memory_test,0.0,20.0,0.0,55.0,48.0,0.0,133.0,,,,1,-0.6359825019855375,
429,V1,d09142021,BZQe3,memory_test,1.0,21.0,0.0,28.0,64.0,0.0,185.0,,,,1,-0.5985276314047272,
430,V1,d09142021,BZQe3,memory_test,0.0,22.0,1.0,14.0,5.0,0.0,190.0,14.0,,,0,-0.5949262015411878,
431,V1,d09142021,BZQe3,memory_test,0.0,23.0,0.0,31.0,38.0,0.0,175.0,,,,1,-0.6057304911318061,
432,V1,d09142021,IVM93,memory_test,1.0,0.0,0.0,28.0,25.0,0.0,3011.0,,,,1,0.8472092762255706,
433,V1,d09142021,IVM93,memory_test,0.0,1.0,0.0,19.0,44.0,0.0,3685.0,,,,1,1.78780345963153,
434,V1,d09142021,IVM93,memory_test,0.0,2.0,0.0,14.0,11.0,0.0,3827.0,,,,1,1.9859701866992543,
435,V1,d09142021,IVM93,memory_test,1.0,3.0,1.0,38.0,28.0,1.0,1775.0,28.0,0.0,6374.0,1,-0.8776785734625091,2.9968826164350646
436,V1,d09142021,IVM93,memory_test,1.0,4.0,1.0,52.0,30.0,0.0,3188.0,30.0,,,0,1.0942199148944949,
437,V1,d09142021,IVM93,memory_test,0.0,5.0,1.0,11.0,16.0,1.0,2402.0,11.0,1.0,1768.0,1,-0.0026747856353035795,0.2338254877380385
438,V1,d09142021,IVM93,memory_test,1.0,6.0,1.0,25.0,66.0,1.0,1890.0,66.0,0.0,3263.0,1,-0.7171914353442815,1.1306492843950195
439,V1,d09142021,IVM93,memory_test,1.0,7.0,0.0,48.0,47.0,1.0,1394.0,,0.0,698.0,0,-1.4093794397498538,-0.4080484001703025
440,V1,d09142021,IVM93,memory_test,1.0,8.0,0.0,26.0,66.0,1.0,2716.0,,0.0,571.0,0,0.43552487844403054,-0.4842334317257786
441,V1,d09142021,IVM93,memory_test,0.0,9.0,1.0,42.0,44.0,1.0,3208.0,42.0,1.0,2116.0,1,1.1221307215237517,0.44258447184280736
442,V1,d09142021,IVM93,memory_test,0.0,10.0,0.0,23.0,12.0,1.0,2251.0,,0.0,829.0,0,-0.2134013756861936,-0.32946384006189816
443,V1,d09142021,IVM93,memory_test,0.0,11.0,1.0,58.0,19.0,1.0,1857.0,19.0,1.0,948.0,1,-0.7632442662825555,-0.25807786561227897
444,V1,d09142021,IVM93,memory_test,0.0,12.0,1.0,39.0,23.0,1.0,1218.0,39.0,1.0,493.0,1,-1.6549945380873152,-0.5310242385078819
445,V1,d09142021,IVM93,memory_test,1.0,13.0,1.0,62.0,48.0,0.0,2244.0,62.0,,,0,-0.2231701580064335,
446,V1,d09142021,IVM93,memory_test,1.0,14.0,0.0,62.0,52.0,1.0,2835.0,,1.0,813.0,0,0.6015941778881094,-0.3390619542736117
447,V1,d09142021,IVM93,memory_test,0.0,15.0,0.0,39.0,29.0,0.0,2560.0,,,,1,0.21782058673582635,
448,V1,d09142021,IVM93,memory_test,1.0,16.0,0.0,38.0,51.0,0.0,3205.0,,,,1,1.117944100529363,
449,V1,d09142021,IVM93,memory_test,1.0,17.0,1.0,55.0,51.0,0.0,2810.0,51.0,,,0,0.5667056696015382,
450,V1,d09142021,IVM93,memory_test,1.0,18.0,0.0,30.0,55.0,0.0,2413.0,,,,1,0.012676158010787744,
451,V1,d09142021,IVM93,memory_test,0.0,19.0,1.0,8.0,29.0,1.0,2184.0,8.0,1.0,243.0,1,-0.30690257789420433,-0.6809947730659055
452,V1,d09142021,IVM93,memory_test,0.0,20.0,0.0,16.0,42.0,0.0,2030.0,,,,1,-0.5218157889394829,
453,V1,d09142021,IVM93,memory_test,0.0,21.0,0.0,8.0,58.0,1.0,1709.0,,1.0,488.0,0,-0.969784235339057,-0.5340236491990424
454,V1,d09142021,IVM93,memory_test,0.0,22.0,1.0,12.0,14.0,1.0,1896.0,12.0,1.0,330.0,1,-0.7088181933555044,-0.6288050270397133
455,V1,d09142021,IVM93,memory_test,1.0,23.0,1.0,26.0,47.0,1.0,1386.0,47.0,0.0,361.0,1,-1.4205437624015569,-0.6102086807545184
456,V1,d09142021,aOuee,memory_test,1.0,0.0,1.0,37.0,32.0,0.0,4320.0,32.0,,,0,3.556079450369284,
457,V1,d09142021,aOuee,memory_test,0.0,1.0,1.0,51.0,7.0,0.0,1257.0,51.0,,,0,-0.21869583092606487,
458,V1,d09142021,aOuee,memory_test,0.0,2.0,0.0,2.0,6.0,0.0,1077.0,,,,1,-0.4405239571530197,
459,V1,d09142021,aOuee,memory_test,0.0,3.0,0.0,64.0,51.0,1.0,1129.0,,0.0,4081.0,0,-0.3764402762430106,2.2293643286217315
460,V1,d09142021,aOuee,memory_test,0.0,4.0,0.0,52.0,39.0,0.0,2562.0,,,,1,1.3895580842193578,
461,V1,d09142021,aOuee,memory_test,0.0,5.0,0.0,30.0,7.0,1.0,904.0,,1.0,1117.0,0,-0.6537254340267041,-0.02818123681551215
462,V1,d09142021,aOuee,memory_test,1.0,6.0,0.0,22.0,37.0,1.0,2566.0,,1.0,440.0,0,1.3944875981355125,-0.5438217050344777
463,V1,d09142021,aOuee,memory_test,0.0,7.0,1.0,4.0,52.0,0.0,2396.0,4.0,,,0,1.1849832566989438,
464,V1,d09142021,aOuee,memory_test,0.0,8.0,0.0,26.0,66.0,1.0,583.0,,1.0,642.0,0,-1.0493189257981068,-0.3899673851227627
465,V1,d09142021,aOuee,memory_test,0.0,9.0,1.0,26.0,67.0,0.0,1686.0,26.0,,,0,0.3099945365815108,
466,V1,d09142021,aOuee,memory_test,0.0,10.0,1.0,30.0,66.0,1.0,914.0,30.0,1.0,408.0,1,-0.6414016492363177,-0.5681946666046503
467,V1,d09142021,aOuee,memory_test,1.0,11.0,1.0,5.0,14.0,1.0,1462.0,14.0,1.0,585.0,1,0.033941757276855916,-0.4333817229196328
468,V1,d09142021,aOuee,memory_test,1.0,12.0,1.0,61.0,21.0,1.0,1531.0,21.0,0.0,805.0,1,0.11897587233052195,-0.2658176121246957
469,V1,d09142021,aOuee,memory_test,1.0,13.0,0.0,21.0,24.0,0.0,920.0,,,,1,-0.6340073783620859,
470,V1,d09142021,aOuee,memory_test,1.0,14.0,0.0,55.0,32.0,0.0,1324.0,,,,1,-0.13612647283047613,
471,V1,d09142021,aOuee,memory_test,1.0,15.0,1.0,34.0,22.0,0.0,912.0,22.0,,,0,-0.6438664061943951,
472,V1,d09142021,aOuee,memory_test,0.0,16.0,0.0,4.0,67.0,0.0,1549.0,,,,1,0.14115868495321746,
473,V1,d09142021,aOuee,memory_test,1.0,17.0,0.0,5.0,56.0,0.0,1228.0,,,,1,-0.25443480681818537,
474,V1,d09142021,aOuee,memory_test,0.0,18.0,1.0,39.0,2.0,0.0,900.0,39.0,,,0,-0.6586549479428586,
475,V1,d09142021,aOuee,memory_test,1.0,19.0,1.0,56.0,24.0,0.0,1169.0,56.0,,,0,-0.32714513708146503,
476,V1,d09142021,aOuee,memory_test,0.0,20.0,1.0,6.0,64.0,0.0,1197.0,6.0,,,0,-0.2926385396683832,
477,V1,d09142021,aOuee,memory_test,1.0,21.0,1.0,55.0,47.0,0.0,969.0,47.0,,,0,-0.5736208328891926,
478,V1,d09142021,aOuee,memory_test,1.0,22.0,0.0,34.0,14.0,0.0,993.0,,,,1,-0.5440437493922653,
479,V1,d09142021,aOuee,memory_test,1.0,23.0,0.0,47.0,61.0,0.0,879.0,,,,1,-0.68453489600267,
480,V1,d09142021,7DxUX,memory_test,1.0,0.0,1.0,31.0,66.0,1.0,4684.0,31.0,0.0,4580.0,1,1.9535837267872724,3.44484075799762
481,V1,d09142021,7DxUX,memory_test,0.0,1.0,0.0,14.0,26.0,1.0,3748.0,,0.0,2355.0,0,1.2114379733408165,1.2518063477884611
482,V1,d09142021,7DxUX,memory_test,1.0,2.0,0.0,29.0,66.0,1.0,2295.0,,1.0,1565.0,0,0.05936769582190534,0.4731559279838612
483,V1,d09142021,7DxUX,memory_test,1.0,3.0,0.0,39.0,4.0,1.0,2455.0,,1.0,792.0,0,0.1862302177785645,-0.2887387232932981
484,V1,d09142021,7DxUX,memory_test,1.0,4.0,1.0,28.0,60.0,1.0,1323.0,60.0,1.0,1179.0,1,-0.7113221250647991,0.09270141906667682
485,V1,d09142021,7DxUX,memory_test,1.0,5.0,1.0,48.0,52.0,1.0,1802.0,52.0,1.0,835.0,1,-0.3315274499570507,-0.2463564852533009
486,V1,d09142021,7DxUX,memory_test,0.0,6.0,1.0,11.0,50.0,1.0,1863.0,50.0,0.0,1131.0,1,-0.2831611134610744,0.045391013812726436
487,V1,d09142021,7DxUX,memory_test,0.0,7.0,0.0,33.0,59.0,1.0,1752.0,,1.0,853.0,0,-0.3711719880685067,-0.22861508328306954
488,V1,d09142021,7DxUX,memory_test,0.0,8.0,1.0,25.0,26.0,1.0,1549.0,26.0,0.0,1045.0,1,-0.5321288128010179,-0.039373462267268
489,V1,d09142021,7DxUX,memory_test,0.0,9.0,0.0,20.0,61.0,1.0,1554.0,,0.0,396.0,0,-0.5281643589898724,-0.6790495666383889
490,V1,d09142021,7DxUX,memory_test,0.0,10.0,0.0,50.0,25.0,1.0,927.0,,1.0,291.0,0,-1.0253068669075305,-0.7825410781314053
491,V1,d09142021,7DxUX,memory_test,0.0,11.0,1.0,21.0,20.0,1.0,1261.0,21.0,1.0,1809.0,1,-0.7604813523230045,0.7136504880247756
492,V1,d09142021,7DxUX,memory_test,0.0,12.0,1.0,14.0,59.0,1.0,1281.0,59.0,1.0,289.0,1,-0.7446235370784221,-0.7845123450169865
493,V1,d09142021,7DxUX,memory_test,1.0,13.0,1.0,39.0,34.0,1.0,1185.0,39.0,1.0,309.0,1,-0.8207410502524176,-0.7647996761611741
494,V1,d09142021,7DxUX,memory_test,0.0,14.0,0.0,62.0,11.0,1.0,2089.0,,1.0,516.0,0,-0.10396780119729332,-0.5607735535035129
495,V1,d09142021,7DxUX,memory_test,1.0,15.0,1.0,4.0,29.0,1.0,2024.0,29.0,0.0,467.0,1,-0.15550570074218611,-0.6090695922002539
496,V1,d09142021,7DxUX,memory_test,1.0,16.0,1.0,15.0,35.0,1.0,1603.0,35.0,1.0,292.0,1,-0.4893127116406456,-0.7815554446886147
497,V1,d09142021,7DxUX,memory_test,0.0,17.0,1.0,33.0,61.0,1.0,6111.0,61.0,0.0,1060.0,1,3.0850388444882264,-0.024588960625408503
498,V1,d09142021,7DxUX,memory_test,1.0,18.0,0.0,60.0,15.0,0.0,2087.0,,,,1,-0.10555358272175157,
499,V1,d09142021,7DxUX,memory_test,1.0,19.0,0.0,48.0,31.0,1.0,3247.0,,1.0,850.0,0,0.8141997014640273,-0.23157198361144146
500,V1,d09142021,7DxUX,memory_test,0.0,20.0,0.0,21.0,17.0,0.0,3958.0,,,,1,1.3779450334089316,
501,V1,d09142021,7DxUX,memory_test,1.0,21.0,0.0,28.0,52.0,0.0,1723.0,,,,1,-0.3941658201731512,
502,V1,d09142021,7DxUX,memory_test,0.0,22.0,1.0,17.0,62.0,0.0,1503.0,62.0,,,0,-0.5686017878635575,
503,V1,d09142021,7DxUX,memory_test,1.0,23.0,0.0,34.0,35.0,0.0,1259.0,,,,1,-0.7620671338474627,
504,V1,d09142021,N8OXC,memory_test,0.0,0.0,0.0,58.0,49.0,0.0,2340.0,,,,1,3.516261607712219,
505,V1,d09142021,N8OXC,memory_test,1.0,1.0,1.0,65.0,21.0,0.0,1282.0,65.0,,,0,0.5978817050179435,
506,V1,d09142021,N8OXC,memory_test,0.0,2.0,0.0,31.0,67.0,1.0,1120.0,,1.0,1566.0,0,0.15102202237477466,2.753055552723478
507,V1,d09142021,N8OXC,memory_test,1.0,3.0,1.0,42.0,52.0,1.0,1385.0,42.0,1.0,383.0,1,0.8819961945997113,-0.17577962611813572
508,V1,d09142021,N8OXC,memory_test,0.0,4.0,1.0,14.0,31.0,1.0,1318.0,31.0,0.0,821.0,1,0.6971838567164255,0.9086073631740256
509,V1,d09142021,N8OXC,memory_test,0.0,5.0,1.0,67.0,58.0,0.0,1165.0,58.0,,,0,0.2751497119978771,
510,V1,d09142021,N8OXC,memory_test,1.0,6.0,0.0,21.0,63.0,0.0,955.0,,,,1,-0.304112839576601,
511,V1,d09142021,N8OXC,memory_test,1.0,7.0,1.0,30.0,54.0,1.0,1207.0,54.0,0.0,283.0,1,0.3910022223127727,-0.4233565643126931
512,V1,d09142021,N8OXC,memory_test,0.0,8.0,1.0,66.0,10.0,1.0,1014.0,10.0,1.0,296.0,1,-0.1413676465152,-0.39117156234740064
513,V1,d09142021,N8OXC,memory_test,1.0,9.0,0.0,37.0,52.0,0.0,916.0,,,,1,-0.41169017058328977,
514,V1,d09142021,N8OXC,memory_test,1.0,10.0,0.0,4.0,54.0,1.0,951.0,,0.0,258.0,0,-0.31514641198754345,-0.4852507988613324
515,V1,d09142021,N8OXC,memory_test,0.0,11.0,0.0,15.0,10.0,1.0,800.0,,0.0,274.0,0,-0.7316637705006206,-0.4456384887502033
516,V1,d09142021,N8OXC,memory_test,1.0,12.0,1.0,63.0,4.0,1.0,861.0,63.0,0.0,298.0,1,-0.5634017912337483,-0.3862200235835095
517,V1,d09142021,N8OXC,memory_test,1.0,13.0,0.0,55.0,42.0,0.0,873.0,,,,1,-0.5303010740009211,
518,V1,d09142021,N8OXC,memory_test,1.0,14.0,0.0,65.0,2.0,1.0,1059.0,,1.0,300.0,0,-0.017239956892097563,-0.3812684848196184
519,V1,d09142021,N8OXC,memory_test,0.0,15.0,0.0,3.0,48.0,0.0,389.0,,,,1,-1.865363335724956,
520,V1,d09142021,N8OXC,memory_test,1.0,16.0,1.0,11.0,55.0,1.0,1071.0,11.0,0.0,208.0,1,0.01586076034072976,-0.6090392679586111
521,V1,d09142021,N8OXC,memory_test,0.0,17.0,1.0,48.0,36.0,0.0,1171.0,36.0,,,0,0.2917000706142908,
522,V1,d09142021,N8OXC,memory_test,1.0,18.0,0.0,11.0,30.0,0.0,595.0,,,,1,-1.2971343565614206,
523,V1,d09142021,N8OXC,memory_test,1.0,19.0,1.0,37.0,2.0,0.0,890.0,37.0,,,0,-0.4834083912544157,
524,V1,d09142021,N8OXC,memory_test,0.0,20.0,0.0,14.0,36.0,1.0,1111.0,,1.0,307.0,0,0.12619648445015416,-0.36393809914599934
525,V1,d09142021,N8OXC,memory_test,0.0,21.0,1.0,51.0,49.0,0.0,799.0,51.0,,,0,-0.7344221636033561,
526,V1,d09142021,N8OXC,memory_test,0.0,22.0,0.0,66.0,51.0,0.0,877.0,,,,1,-0.5192675015899786,
527,V1,d09142021,N8OXC,memory_test,0.0,23.0,1.0,3.0,15.0,0.0,1417.0,3.0,,,0,0.9702647738872509,
528,V1,d09142021,fox3f,memory_test,0.0,0.0,0.0,37.0,3.0,0.0,2400.0,,,,1,2.3781266654377684,
529,V1,d09142021,fox3f,memory_test,1.0,1.0,0.0,34.0,25.0,1.0,2006.0,,0.0,3156.0,0,1.4439861034646229,2.769303077622774
530,V1,d09142021,fox3f,memory_test,0.0,2.0,0.0,24.0,55.0,0.0,2269.0,,,,1,2.067536783157357,
531,V1,d09142021,fox3f,memory_test,0.0,3.0,0.0,18.0,14.0,0.0,1392.0,,,,1,-0.011755787529061193,
532,V1,d09142021,fox3f,memory_test,1.0,4.0,1.0,59.0,34.0,1.0,1023.0,59.0,1.0,914.0,1,-0.8866234712044185,0.11577318018191415
533,V1,d09142021,fox3f,memory_test,0.0,5.0,1.0,18.0,47.0,1.0,1399.0,47.0,1.0,1429.0,1,0.004840618394319569,0.725303910414761
534,V1,d09142021,fox3f,memory_test,1.0,6.0,1.0,51.0,10.0,1.0,1545.0,51.0,1.0,396.0,1,0.35099422765340405,-0.4973082144988911
535,V1,d09142021,fox3f,memory_test,0.0,7.0,1.0,53.0,37.0,0.0,1505.0,37.0,,,0,0.2561576223769425,
536,V1,d09142021,fox3f,memory_test,1.0,8.0,0.0,20.0,51.0,0.0,1781.0,,,,1,0.9105301987845268,
537,V1,d09142021,fox3f,memory_test,0.0,9.0,1.0,24.0,7.0,0.0,1224.0,24.0,,,0,-0.4100695296901995,
538,V1,d09142021,fox3f,memory_test,1.0,10.0,0.0,10.0,67.0,0.0,1113.0,,,,1,-0.6732411093323801,
539,V1,d09142021,fox3f,memory_test,0.0,11.0,0.0,53.0,47.0,1.0,923.0,,0.0,515.0,0,-1.1237149843955725,-0.3564651913965439
540,V1,d09142021,fox3f,memory_test,0.0,12.0,0.0,7.0,65.0,1.0,1123.0,,0.0,432.0,0,-0.6495319580132648,-0.4547002411233911
541,V1,d09142021,fox3f,memory_test,0.0,13.0,0.0,21.0,44.0,0.0,1442.0,,,,1,0.10678996906651568,
542,V1,d09142021,fox3f,memory_test,0.0,14.0,1.0,65.0,44.0,1.0,982.0,65.0,1.0,262.0,1,-0.9838309916127916,-0.6559045598410299
543,V1,d09142021,fox3f,memory_test,1.0,15.0,1.0,49.0,13.0,1.0,1429.0,49.0,1.0,296.0,1,0.0759680723516657,-0.6156636960975022
544,V1,d09142021,fox3f,memory_test,1.0,16.0,0.0,49.0,52.0,0.0,980.0,,,,1,-0.9885728218766144,
545,V1,d09142021,fox3f,memory_test,1.0,17.0,1.0,9.0,20.0,0.0,1292.0,9.0,,,0,-0.2488473007202149,
546,V1,d09142021,fox3f,memory_test,0.0,18.0,1.0,21.0,3.0,1.0,1533.0,21.0,1.0,675.0,1,0.3225432460704656,-0.16709642083876625
547,V1,d09142021,fox3f,memory_test,1.0,19.0,1.0,52.0,67.0,0.0,983.0,67.0,,,0,-0.98146007648088,
548,V1,d09142021,fox3f,memory_test,1.0,20.0,0.0,59.0,13.0,1.0,1535.0,,1.0,466.0,0,0.32728507633428866,-0.4144593773798633
549,V1,d09142021,fox3f,memory_test,1.0,21.0,1.0,25.0,1.0,1.0,1801.0,25.0,1.0,437.0,1,0.9579485014227576,-0.4487824670434605
550,V1,d09142021,fox3f,memory_test,1.0,22.0,0.0,9.0,1.0,0.0,1069.0,,,,1,-0.7775613751364878,
551,V1,d09142021,fox3f,memory_test,0.0,23.0,1.0,14.0,55.0,0.0,778.0,14.0,,,0,-1.4674976785227452,
552,V1,d09172021,qkwlL,memory_test,1.0,0.0,1.0,29.0,18.0,0.0,3035.0,18.0,,,0,2.2405288388340465,
553,V1,d09172021,qkwlL,memory_test,0.0,1.0,1.0,68.0,19.0,0.0,2419.0,68.0,,,0,0.4566967340722102,
554,V1,d09172021,qkwlL,memory_test,1.0,2.0,0.0,29.0,10.0,1.0,2133.0,,0.0,2746.0,0,-0.371511028852928,1.8537317899855563
555,V1,d09172021,qkwlL,memory_test,1.0,3.0,0.0,18.0,38.0,0.0,2024.0,,,,1,-0.6871566447929282,
556,V1,d09172021,qkwlL,memory_test,0.0,4.0,0.0,14.0,65.0,0.0,2483.0,,,,1,0.6420299397617517,
557,V1,d09172021,qkwlL,memory_test,1.0,5.0,0.0,64.0,69.0,0.0,1992.0,,,,1,-0.7798232476376991,
558,V1,d09172021,qkwlL,memory_test,1.0,6.0,1.0,69.0,35.0,1.0,2486.0,35.0,0.0,2358.0,1,0.6507174337784489,1.2774533079651356
559,V1,d09172021,qkwlL,memory_test,1.0,7.0,0.0,22.0,35.0,0.0,2177.0,,,,1,-0.24409444994136825,
560,V1,d09172021,qkwlL,memory_test,1.0,8.0,1.0,51.0,24.0,1.0,2081.0,51.0,1.0,1557.0,1,-0.5220942584756804,0.08776499843328793
561,V1,d09172021,qkwlL,memory_test,1.0,9.0,1.0,4.0,64.0,1.0,2544.0,64.0,0.0,1608.0,1,0.8186756514345959,0.16351294323494114
562,V1,d09172021,qkwlL,memory_test,1.0,10.0,0.0,24.0,56.0,1.0,2962.0,,0.0,1024.0,0,2.0291331510944133,-0.7038752874349703
563,V1,d09172021,qkwlL,memory_test,0.0,11.0,1.0,8.0,65.0,1.0,2125.0,65.0,0.0,1383.0,1,-0.39467767956412064,-0.17066916618411718
564,V1,d09172021,qkwlL,memory_test,0.0,12.0,1.0,23.0,54.0,1.0,2182.0,54.0,0.0,1238.0,1,-0.22961529324687285,-0.3860309700319548
565,V1,d09172021,qkwlL,memory_test,0.0,13.0,1.0,50.0,42.0,1.0,2306.0,42.0,1.0,2004.0,1,0.1294677927766137,0.7516734558124838
566,V1,d09172021,qkwlL,memory_test,1.0,14.0,0.0,51.0,4.0,0.0,2246.0,,,,1,-0.0442820875573314,
567,V1,d09172021,qkwlL,memory_test,0.0,15.0,0.0,54.0,8.0,0.0,1971.0,,,,1,-0.8406357057545797,
568,V1,d09172021,qkwlL,memory_test,1.0,16.0,1.0,22.0,10.0,1.0,2522.0,10.0,0.0,608.0,1,0.754967361978816,-1.3217408764053182
569,V1,d09172021,qkwlL,memory_test,0.0,17.0,0.0,55.0,68.0,1.0,2119.0,,0.0,575.0,0,-0.4120526675975151,-1.3707542524534466
570,V1,d09172021,qkwlL,memory_test,0.0,18.0,0.0,42.0,19.0,0.0,2348.0,,,,1,0.2510927090103752,
571,V1,d09172021,qkwlL,memory_test,0.0,19.0,0.0,50.0,63.0,0.0,2026.0,,,,1,-0.6813649821151301,
572,V1,d09172021,qkwlL,memory_test,0.0,20.0,0.0,5.0,23.0,0.0,1320.0,,,,1,-2.725821907377884,
573,V1,d09172021,qkwlL,memory_test,0.0,21.0,1.0,14.0,63.0,0.0,2165.0,63.0,,,0,-0.27884442600815723,
574,V1,d09172021,qkwlL,memory_test,0.0,22.0,1.0,55.0,5.0,1.0,2076.0,5.0,1.0,1376.0,1,-0.5365734151701758,-0.181065942921599
575,V1,d09172021,qkwlL,memory_test,1.0,23.0,1.0,56.0,38.0,0.0,2529.0,56.0,,,0,0.7752381813511096,
576,V1,d09172021,ZpokS,memory_test,1.0,0.0,0.0,2.0,31.0,1.0,3013.0,,0.0,5052.0,0,2.3413379653482296,4.025236259896047
577,V1,d09172021,ZpokS,memory_test,0.0,1.0,1.0,43.0,30.0,1.0,2730.0,30.0,0.0,1748.0,1,1.9423624156306027,0.7005296386644634
578,V1,d09172021,ZpokS,memory_test,1.0,2.0,1.0,62.0,42.0,1.0,2152.0,62.0,1.0,1706.0,1,1.1274936250412444,0.6582664189030449
579,V1,d09172021,ZpokS,memory_test,0.0,3.0,1.0,37.0,52.0,1.0,1622.0,52.0,0.0,1746.0,1,0.38029559906830346,0.6985171043901102
580,V1,d09172021,ZpokS,memory_test,1.0,4.0,0.0,19.0,64.0,1.0,1569.0,,0.0,1021.0,0,0.3055757964710093,-0.03102657006294599
581,V1,d09172021,ZpokS,memory_test,1.0,5.0,0.0,66.0,42.0,1.0,2076.0,,1.0,1586.0,0,1.020348247731917,0.5375143624418495
582,V1,d09172021,ZpokS,memory_test,0.0,6.0,0.0,38.0,4.0,1.0,2162.0,,1.0,1005.0,0,1.141591701002998,-0.047126844257772055
583,V1,d09172021,ZpokS,memory_test,0.0,7.0,1.0,14.0,4.0,1.0,1519.0,14.0,1.0,1141.0,1,0.2350854166622413,0.08972548639824951
584,V1,d09172021,ZpokS,memory_test,0.0,8.0,0.0,37.0,30.0,1.0,1477.0,,0.0,1058.0,0,0.1758734976228762,0.006205314012589289
585,V1,d09172021,ZpokS,memory_test,1.0,9.0,0.0,11.0,62.0,1.0,1224.0,,0.0,522.0,0,-0.18080782420949,-0.5331538715140839
586,V1,d09172021,ZpokS,memory_test,0.0,10.0,0.0,61.0,51.0,1.0,1404.0,,0.0,770.0,0,0.0729575431020749,-0.2835996214942799
587,V1,d09172021,ZpokS,memory_test,1.0,11.0,1.0,64.0,11.0,1.0,1197.0,64.0,1.0,418.0,1,-0.2188726293062247,-0.6378056537804534
588,V1,d09172021,ZpokS,memory_test,1.0,12.0,0.0,27.0,18.0,1.0,2092.0,,1.0,1123.0,0,1.0429051692707227,0.07161267792907018
589,V1,d09172021,ZpokS,memory_test,1.0,13.0,1.0,19.0,27.0,1.0,1151.0,27.0,0.0,366.0,1,-0.28372377873029125,-0.6901315449136379
590,V1,d09172021,ZpokS,memory_test,1.0,14.0,1.0,31.0,18.0,1.0,845.0,31.0,1.0,478.0,1,-0.7151249031599516,-0.5774296255498556
591,V1,d09172021,ZpokS,memory_test,0.0,15.0,0.0,49.0,52.0,1.0,645.0,,0.0,1754.0,0,-0.9970864223950237,0.7065672414875231
592,V1,d09172021,ZpokS,memory_test,0.0,16.0,1.0,51.0,25.0,1.0,771.0,51.0,1.0,904.0,1,-0.8194506652769282,-0.1487598251126116
593,V1,d09172021,ZpokS,memory_test,0.0,17.0,0.0,44.0,25.0,1.0,617.0,,1.0,341.0,0,-1.0365610350879335,-0.7152882233430538
594,V1,d09172021,ZpokS,memory_test,0.0,18.0,0.0,14.0,43.0,1.0,565.0,,1.0,330.0,0,-1.1098710300890524,-0.7263571618519967
595,V1,d09172021,ZpokS,memory_test,1.0,19.0,0.0,39.0,10.0,1.0,894.0,,1.0,432.0,0,-0.6460443309473589,-0.6237179138599805
596,V1,d09172021,ZpokS,memory_test,0.0,20.0,1.0,61.0,38.0,1.0,847.0,38.0,0.0,525.0,1,-0.7123052879676008,-0.530135070102554
597,V1,d09172021,ZpokS,memory_test,0.0,21.0,1.0,49.0,44.0,1.0,649.0,44.0,1.0,377.0,1,-0.9914471920103222,-0.6790626064046952
598,V1,d09172021,ZpokS,memory_test,1.0,22.0,1.0,39.0,2.0,1.0,570.0,39.0,1.0,422.0,1,-1.1028219921081757,-0.6337805852317469
599,V1,d09172021,ZpokS,memory_test,1.0,23.0,1.0,66.0,10.0,1.0,663.0,66.0,1.0,419.0,1,-0.9717098856638672,-0.6367993866432767
600,V1,d09172021,sHdCP,memory_test,1.0,0.0,0.0,30.0,11.0,0.0,2478.0,,,,1,0.10579539802435048,
601,V1,d09172021,sHdCP,memory_test,0.0,1.0,1.0,50.0,60.0,0.0,3255.0,50.0,,,0,0.7496833165485314,
602,V1,d09172021,sHdCP,memory_test,1.0,2.0,0.0,4.0,24.0,0.0,2087.0,,,,1,-0.21822027268730293,
603,V1,d09172021,sHdCP,memory_test,1.0,3.0,1.0,68.0,30.0,0.0,2296.0,68.0,,,0,-0.045025195503836025,
604,V1,d09172021,sHdCP,memory_test,0.0,4.0,0.0,6.0,38.0,0.0,2152.0,,,,1,-0.1643557749986649,
605,V1,d09172021,sHdCP,memory_test,1.0,5.0,1.0,44.0,24.0,0.0,1351.0,24.0,,,0,-0.8281321234386506,
606,V1,d09172021,sHdCP,memory_test,0.0,6.0,1.0,19.0,38.0,0.0,1609.0,19.0,,,0,-0.6143315018437489,
607,V1,d09172021,sHdCP,memory_test,0.0,7.0,0.0,57.0,16.0,0.0,1383.0,,,,1,-0.8016142168842442,
608,V1,d09172021,sHdCP,memory_test,0.0,8.0,0.0,2.0,0.0,0.0,1350.0,,,,1,-0.8289608080184757,
609,V1,d09172021,sHdCP,memory_test,0.0,9.0,1.0,6.0,57.0,0.0,1190.0,6.0,,,0,-0.9615503407905078,
610,V1,d09172021,sHdCP,memory_test,1.0,10.0,1.0,63.0,5.0,0.0,1174.0,63.0,,,0,-0.9748092940677112,
611,V1,d09172021,sHdCP,memory_test,1.0,11.0,0.0,58.0,5.0,0.0,2104.0,,,,1,-0.20413263483027447,
612,V1,d09172021,sHdCP,memory_test,1.0,12.0,1.0,33.0,23.0,0.0,3784.0,33.0,,,0,1.1880574592760624,
613,V1,d09172021,sHdCP,memory_test,0.0,13.0,1.0,0.0,16.0,0.0,4694.0,16.0,,,0,1.942160426916995,
614,V1,d09172021,sHdCP,memory_test,1.0,14.0,0.0,44.0,63.0,0.0,1256.0,,,,1,-0.9068571585220446,
615,V1,d09172021,sHdCP,memory_test,0.0,15.0,0.0,50.0,67.0,0.0,1287.0,,,,1,-0.8811679365474634,
616,V1,d09172021,sHdCP,memory_test,1.0,16.0,0.0,68.0,23.0,1.0,4838.0,,1.0,1107.0,0,2.061491006411824,1.145079350933567
617,V1,d09172021,sHdCP,memory_test,1.0,17.0,1.0,58.0,10.0,0.0,2719.0,58.0,,,0,0.30550838176222384,
618,V1,d09172021,sHdCP,memory_test,0.0,18.0,0.0,43.0,19.0,0.0,1479.0,,,,1,-0.7220604972210248,
619,V1,d09172021,sHdCP,memory_test,1.0,19.0,1.0,4.0,11.0,1.0,3512.0,11.0,0.0,419.0,1,0.9626552535636078,-0.70136110244681
620,V1,d09172021,sHdCP,memory_test,0.0,20.0,1.0,59.0,43.0,0.0,4984.0,59.0,,,0,2.1824789550663035,
621,V1,d09172021,sHdCP,memory_test,0.0,21.0,1.0,67.0,2.0,1.0,2102.0,2.0,0.0,515.0,1,-0.20579000398992492,-0.4437182484867574
622,V1,d09172021,sHdCP,memory_test,0.0,22.0,0.0,60.0,59.0,0.0,1573.0,,,,1,-0.644164146717456,
623,V1,d09172021,sHdCP,memory_test,1.0,23.0,0.0,33.0,10.0,0.0,1751.0,,,,1,-0.4966582915085703,
624,V1,d09172021,0Zwdb,memory_test,1.0,0.0,0.0,49.0,46.0,0.0,2142.0,,,,1,2.1488236225588917,
625,V1,d09172021,0Zwdb,memory_test,0.0,1.0,1.0,10.0,61.0,0.0,1055.0,10.0,,,0,-0.8414420554331264,
626,V1,d09172021,0Zwdb,memory_test,0.0,2.0,1.0,1.0,38.0,1.0,985.0,38.0,0.0,3308.0,1,-1.0340074624795306,2.307180268985165
627,V1,d09172021,0Zwdb,memory_test,0.0,3.0,0.0,38.0,44.0,0.0,1646.0,,,,1,0.7843601669157995,
628,V1,d09172021,0Zwdb,memory_test,1.0,4.0,0.0,25.0,14.0,0.0,1024.0,,,,1,-0.9267210214108196,
629,V1,d09172021,0Zwdb,memory_test,0.0,5.0,0.0,3.0,37.0,0.0,1063.0,,,,1,-0.8194345803421088,
630,V1,d09172021,0Zwdb,memory_test,1.0,6.0,0.0,24.0,31.0,0.0,1095.0,,,,1,-0.7314046799780384,
631,V1,d09172021,0Zwdb,memory_test,1.0,7.0,1.0,66.0,62.0,0.0,1178.0,62.0,,,0,-0.5030771259087307,
632,V1,d09172021,0Zwdb,memory_test,1.0,8.0,1.0,46.0,56.0,1.0,1068.0,46.0,1.0,1240.0,1,-0.8056799084102229,-0.7087797792204744
633,V1,d09172021,0Zwdb,memory_test,1.0,9.0,1.0,49.0,59.0,1.0,1757.0,59.0,0.0,1595.0,1,1.0897138838036688,-0.1910496935758892
634,V1,d09172021,0Zwdb,memory_test,0.0,10.0,0.0,10.0,12.0,1.0,2120.0,,1.0,1688.0,0,2.088303066058593,-0.05541899508308236
635,V1,d09172021,0Zwdb,memory_test,0.0,11.0,1.0,19.0,3.0,0.0,1315.0,19.0,,,0,-0.1261991149750541,
636,V1,d09172021,0Zwdb,memory_test,1.0,12.0,1.0,28.0,24.0,0.0,1782.0,28.0,,,0,1.1584872434630988,
637,V1,d09172021,0Zwdb,memory_test,1.0,13.0,0.0,59.0,48.0,0.0,1346.0,,,,1,-0.04092014899736087,
638,V1,d09172021,0Zwdb,memory_test,1.0,14.0,1.0,31.0,14.0,0.0,1394.0,31.0,,,0,0.0911247015487448,
639,V1,d09172021,0Zwdb,memory_test,0.0,15.0,1.0,47.0,37.0,1.0,903.0,37.0,0.0,1377.0,1,-1.2595840821624609,-0.508979717999888
640,V1,d09172021,0Zwdb,memory_test,0.0,16.0,0.0,61.0,19.0,1.0,1421.0,,0.0,1210.0,0,0.16539992998092926,-0.7525316174439605
641,V1,d09172021,0Zwdb,memory_test,0.0,17.0,1.0,44.0,20.0,0.0,1748.0,20.0,,,0,1.064955474326274,
642,V1,d09172021,0Zwdb,memory_test,0.0,18.0,0.0,41.0,1.0,1.0,1537.0,,1.0,1427.0,0,0.4845083188006846,-0.4360599876274112
643,V1,d09172021,0Zwdb,memory_test,1.0,19.0,0.0,62.0,56.0,0.0,934.0,,,,1,-1.1743051161847675,
644,V1,d09172021,0Zwdb,memory_test,0.0,20.0,1.0,12.0,41.0,1.0,1302.0,41.0,0.0,1963.0,1,-0.1619612619979577,0.34563952196554
645,V1,d09172021,0Zwdb,memory_test,1.0,21.0,1.0,25.0,48.0,0.0,1512.0,25.0,,,0,0.4157349591412545,
646,V1,d09172021,0Zwdb,memory_test,1.0,22.0,0.0,66.0,28.0,0.0,913.0,,,,1,-1.232074738298689,
647,V1,d09172021,0Zwdb,memory_test,0.0,23.0,0.0,47.0,20.0,0.0,1421.0,,,,1,0.16539992998092926,
648,V1,d09142021,nD3lS,memory_test,1.0,0.0,1.0,57.0,63.0,0.0,2291.0,57.0,,,0,0.7569477159821585,
649,V1,d09142021,nD3lS,memory_test,1.0,1.0,0.0,47.0,0.0,1.0,1720.0,,1.0,3961.0,0,-0.34132772073774603,2.261301289191604
650,V1,d09142021,nD3lS,memory_test,0.0,2.0,1.0,64.0,24.0,1.0,3042.0,64.0,1.0,2622.0,1,2.201439577587497,0.9070893717411108
651,V1,d09142021,nD3lS,memory_test,1.0,3.0,1.0,50.0,32.0,0.0,1640.0,50.0,,,0,-0.4952016873534945,
652,V1,d09142021,nD3lS,memory_test,1.0,4.0,1.0,47.0,56.0,1.0,2833.0,47.0,1.0,1588.0,1,1.799443839803854,-0.13865754584201828
653,V1,d09142021,nD3lS,memory_test,1.0,5.0,0.0,44.0,57.0,0.0,1736.0,,,,1,-0.31055292741459634,
654,V1,d09142021,nD3lS,memory_test,1.0,6.0,0.0,56.0,50.0,0.0,1076.0,,,,1,-1.580013151994521,
655,V1,d09142021,nD3lS,memory_test,0.0,7.0,0.0,19.0,37.0,0.0,1754.0,,,,1,-0.2759312849260529,
656,V1,d09142021,nD3lS,memory_test,0.0,8.0,0.0,24.0,12.0,0.0,2297.0,,,,1,0.7684882634783397,
657,V1,d09142021,nD3lS,memory_test,1.0,9.0,0.0,33.0,46.0,1.0,1938.0,,1.0,1680.0,0,0.0779788382901685,-0.04561236555415767
658,V1,d09142021,nD3lS,memory_test,0.0,10.0,1.0,61.0,27.0,1.0,2029.0,61.0,1.0,2258.0,1,0.25301047531558235,0.5389540932108796
659,V1,d09142021,nD3lS,memory_test,1.0,11.0,1.0,58.0,0.0,0.0,2479.0,58.0,,,0,1.1185515375291673,
660,V1,d09142021,nD3lS,memory_test,0.0,12.0,0.0,27.0,3.0,0.0,1249.0,,,,1,-1.2472606991879651,
661,V1,d09142021,nD3lS,memory_test,0.0,13.0,1.0,19.0,6.0,1.0,1304.0,19.0,1.0,1447.0,1,-1.141472347139638,-0.2812593982397177
662,V1,d09142021,nD3lS,memory_test,1.0,14.0,0.0,32.0,38.0,0.0,2085.0,,,,1,0.3607222519466063,
663,V1,d09142021,nD3lS,memory_test,1.0,15.0,0.0,58.0,63.0,0.0,1493.0,,,,1,-0.7779451010099322,
664,V1,d09142021,nD3lS,memory_test,0.0,16.0,1.0,31.0,12.0,1.0,1328.0,12.0,0.0,973.0,1,-1.0953101571549133,-0.7606443488532604
665,V1,d09142021,nD3lS,memory_test,0.0,17.0,0.0,69.0,45.0,0.0,1658.0,,,,1,-0.4605800448649511,
666,V1,d09142021,nD3lS,memory_test,0.0,18.0,0.0,31.0,61.0,0.0,1076.0,,,,1,-1.580013151994521,
667,V1,d09142021,nD3lS,memory_test,0.0,19.0,1.0,37.0,69.0,1.0,2157.0,69.0,0.0,819.0,1,0.4992088219007799,-0.9163938897698968
668,V1,d09142021,nD3lS,memory_test,0.0,20.0,1.0,45.0,3.0,1.0,1883.0,3.0,0.0,830.0,1,-0.027809513758158558,-0.9052689225615654
669,V1,d09142021,nD3lS,memory_test,1.0,21.0,1.0,33.0,44.0,0.0,2122.0,33.0,,,0,0.4318889615063899,
670,V1,d09142021,nD3lS,memory_test,0.0,22.0,0.0,64.0,6.0,1.0,1827.0,,1.0,1073.0,0,-0.13552129038918248,-0.6595082833229771
671,V1,d09142021,nD3lS,memory_test,1.0,23.0,1.0,38.0,46.0,0.0,2522.0,38.0,,,0,1.201258794585132,
696,V1,d09142021,VXjQe,memory_test,1.0,0.0,0.0,3.0,16.0,1.0,3203.0,,0.0,3879.0,0,1.8773757656659935,2.6746314201053636
697,V1,d09142021,VXjQe,memory_test,1.0,1.0,0.0,12.0,49.0,1.0,3195.0,,1.0,2522.0,0,1.865586906854904,1.3284227111594982
698,V1,d09142021,VXjQe,memory_test,0.0,2.0,0.0,38.0,50.0,0.0,1712.0,,,,1,-0.3197727952508012,
699,V1,d09142021,VXjQe,memory_test,0.0,3.0,1.0,55.0,21.0,1.0,2023.0,21.0,1.0,1691.0,1,0.13851909103030094,0.5040310846790158
700,V1,d09142021,VXjQe,memory_test,0.0,4.0,1.0,62.0,47.0,1.0,1643.0,62.0,1.0,568.0,1,-0.4214517024964476,-0.6100384659077247
701,V1,d09142021,VXjQe,memory_test,0.0,5.0,1.0,38.0,31.0,1.0,1648.0,31.0,1.0,1764.0,1,-0.4140836657395167,0.5764505657055805
702,V1,d09142021,VXjQe,memory_test,0.0,6.0,0.0,34.0,56.0,0.0,1222.0,,,,1,-1.0418403974300294,
703,V1,d09142021,VXjQe,memory_test,1.0,7.0,0.0,20.0,29.0,0.0,1731.0,,,,1,-0.2917742555744637,
704,V1,d09142021,VXjQe,memory_test,1.0,8.0,1.0,51.0,19.0,1.0,1188.0,19.0,1.0,997.0,1,-1.0919430473771596,-0.1844500089159957
705,V1,d09142021,VXjQe,memory_test,0.0,9.0,0.0,21.0,5.0,1.0,1064.0,,0.0,771.0,0,-1.2746703589490458,-0.4086527857927574
706,V1,d09142021,VXjQe,memory_test,0.0,10.0,0.0,55.0,31.0,0.0,1413.0,,,,1,-0.7603813933152691,
707,V1,d09142021,VXjQe,memory_test,1.0,11.0,1.0,29.0,3.0,0.0,1350.0,29.0,,,0,-0.8532186564525984,
708,V1,d09142021,VXjQe,memory_test,0.0,12.0,0.0,62.0,10.0,1.0,1138.0,,1.0,398.0,0,-1.1656234149464686,-0.7786865724079437
709,V1,d09142021,VXjQe,memory_test,0.0,13.0,0.0,7.0,47.0,0.0,1938.0,,,,1,0.013262466162475624,
710,V1,d09142021,VXjQe,memory_test,1.0,14.0,0.0,63.0,36.0,1.0,1764.0,,1.0,495.0,0,-0.2431452129787197,-0.6824579469342893
711,V1,d09142021,VXjQe,memory_test,0.0,15.0,1.0,50.0,10.0,1.0,3089.0,50.0,1.0,654.0,1,1.709384527607969,-0.5247223649723198
712,V1,d09142021,VXjQe,memory_test,1.0,16.0,1.0,12.0,20.0,1.0,2117.0,12.0,1.0,334.0,1,0.2770381820606019,-0.8421776242668496
713,V1,d09142021,VXjQe,memory_test,1.0,17.0,0.0,42.0,51.0,0.0,1477.0,,,,1,-0.6660705228265535,
714,V1,d09142021,VXjQe,memory_test,1.0,18.0,1.0,16.0,60.0,1.0,1381.0,16.0,1.0,1338.0,1,-0.8075368285596268,0.15383825176973764
715,V1,d09142021,VXjQe,memory_test,0.0,19.0,1.0,56.0,5.0,0.0,3278.0,56.0,,,0,1.9878963170199573,
716,V1,d09142021,VXjQe,memory_test,1.0,20.0,1.0,49.0,36.0,0.0,2254.0,36.0,,,0,0.4789223892005086,
717,V1,d09142021,VXjQe,memory_test,0.0,21.0,1.0,34.0,7.0,1.0,2170.0,7.0,0.0,334.0,1,0.35513937168406945,-0.8421776242668496
718,V1,d09142021,VXjQe,memory_test,1.0,22.0,0.0,19.0,60.0,1.0,2364.0,,1.0,816.0,0,0.6410191978529884,-0.36401063995446414
719,V1,d09142021,VXjQe,memory_test,1.0,23.0,1.0,42.0,63.0,0.0,1934.0,42.0,,,0,0.007368036756930901,
720,V1,d09172021,icC9x,memory_test,0.0,0.0,0.0,7.0,46.0,0.0,2764.0,,,,1,2.0727152986074584,
721,V1,d09172021,icC9x,memory_test,1.0,1.0,1.0,66.0,0.0,1.0,2855.0,66.0,1.0,1961.0,1,2.250964243801925,0.987238525491234
722,V1,d09172021,icC9x,memory_test,0.0,2.0,0.0,21.0,20.0,0.0,1366.0,,,,1,-0.6656586066877629,
723,V1,d09172021,icC9x,memory_test,0.0,3.0,0.0,3.0,29.0,0.0,1759.0,,,,1,0.1041417829982328,
724,V1,d09172021,icC9x,memory_test,0.0,4.0,0.0,64.0,56.0,1.0,1588.0,,0.0,1505.0,0,-0.23080953159796375,0.17505672823143525
725,V1,d09172021,icC9x,memory_test,1.0,5.0,0.0,60.0,40.0,0.0,1655.0,,,,1,-0.0995712972240154,
726,V1,d09172021,icC9x,memory_test,1.0,6.0,0.0,38.0,55.0,0.0,2174.0,,,,1,0.917035324269704,
727,V1,d09172021,icC9x,memory_test,1.0,7.0,0.0,4.0,42.0,0.0,1672.0,,,,1,-0.06627204372614791,
728,V1,d09172021,icC9x,memory_test,0.0,8.0,1.0,44.0,46.0,1.0,1143.0,46.0,0.0,1217.0,1,-1.1024664613950836,-0.3379001963537009
729,V1,d09172021,icC9x,memory_test,1.0,9.0,1.0,23.0,60.0,0.0,1574.0,60.0,,,0,-0.2582324462432664,
730,V1,d09172021,icC9x,memory_test,1.0,10.0,1.0,42.0,40.0,1.0,1287.0,42.0,0.0,2113.0,1,-0.8204021964719707,1.2579657912445004
731,V1,d09172021,icC9x,memory_test,0.0,11.0,1.0,16.0,31.0,1.0,2359.0,31.0,0.0,1193.0,1,1.2794095535112031,-0.3806466067357956
732,V1,d09172021,icC9x,memory_test,0.0,12.0,0.0,30.0,16.0,1.0,944.0,,1.0,2834.0,0,-1.4922636052818854,2.542139203139928
733,V1,d09172021,icC9x,memory_test,0.0,13.0,1.0,7.0,56.0,1.0,2462.0,56.0,0.0,977.0,1,1.48116385411593,-0.7653643001746477
734,V1,d09172021,icC9x,memory_test,1.0,14.0,0.0,23.0,50.0,1.0,1119.0,,0.0,1409.0,0,-1.1494771722156023,0.00407108670305652
735,V1,d09172021,icC9x,memory_test,0.0,15.0,1.0,30.0,20.0,0.0,1967.0,30.0,,,0,0.5115679434427293,
736,V1,d09172021,icC9x,memory_test,1.0,16.0,1.0,36.0,55.0,1.0,1647.0,36.0,1.0,1009.0,1,-0.11524153416418835,-0.7083690863318548
737,V1,d09172021,icC9x,memory_test,1.0,17.0,1.0,4.0,38.0,0.0,1678.0,38.0,,,0,-0.054519366021018215,
738,V1,d09172021,icC9x,memory_test,1.0,18.0,0.0,0.0,36.0,1.0,1671.0,,0.0,1266.0,0,-0.06823082334366952,-0.25062627515692426
739,V1,d09172021,icC9x,memory_test,0.0,19.0,1.0,29.0,64.0,1.0,1503.0,29.0,1.0,1409.0,1,-0.3973057990873013,0.00407108670305652
740,V1,d09172021,icC9x,memory_test,1.0,20.0,1.0,50.0,2.0,1.0,1002.0,50.0,1.0,833.0,1,-1.3786543874656316,-1.0218427624672155
741,V1,d09172021,icC9x,memory_test,0.0,21.0,0.0,31.0,44.0,0.0,1438.0,,,,1,-0.5246264742262065,
742,V1,d09172021,icC9x,memory_test,0.0,22.0,1.0,3.0,21.0,1.0,1457.0,21.0,0.0,1223.0,1,-0.4874096614932957,-0.3272135937581772
743,V1,d09172021,icC9x,memory_test,1.0,23.0,0.0,66.0,2.0,1.0,1856.0,,1.0,745.0,0,0.2941434058978297,-1.1785796005348963
744,V1,d09142021,0au00,memory_test,0.0,0.0,0.0,3.0,44.0,1.0,1140.0,,1.0,2760.0,0,-0.1445105097525337,3.3342589191265084
745,V1,d09142021,0au00,memory_test,0.0,1.0,0.0,1.0,46.0,1.0,1004.0,,0.0,1121.0,0,-0.4424778526661601,0.7731705469977487
746,V1,d09142021,0au00,memory_test,1.0,2.0,1.0,39.0,26.0,1.0,499.0,26.0,1.0,432.0,1,-1.5489007068674934,-0.30345537636815445
747,V1,d09142021,0au00,memory_test,1.0,3.0,0.0,26.0,67.0,1.0,982.0,,1.0,247.0,0,-0.490678452255129,-0.5925349058640791
748,V1,d09142021,0au00,memory_test,1.0,4.0,0.0,48.0,22.0,1.0,1294.0,,0.0,344.0,0,0.1928936873702491,-0.4409634768851348
749,V1,d09142021,0au00,memory_test,1.0,5.0,0.0,2.0,69.0,1.0,2318.0,,1.0,791.0,0,2.4364125046022598,0.25751517005907226
750,V1,d09142021,0au00,memory_test,1.0,6.0,0.0,43.0,11.0,0.0,1248.0,,,,1,0.09211061550240487,
751,V1,d09142021,0au00,memory_test,0.0,7.0,1.0,10.0,46.0,0.0,1237.0,46.0,,,0,0.0680103157079204,
752,V1,d09142021,0au00,memory_test,0.0,8.0,0.0,49.0,10.0,0.0,983.0,,,,1,-0.4884875159101759,
753,V1,d09142021,0au00,memory_test,1.0,9.0,0.0,39.0,60.0,1.0,1717.0,,0.0,273.0,0,1.119659761285425,-0.5519075125295168
754,V1,d09142021,0au00,memory_test,0.0,10.0,0.0,7.0,24.0,0.0,2007.0,,,,1,1.7550313013218344,
755,V1,d09142021,0au00,memory_test,0.0,11.0,1.0,1.0,24.0,1.0,1060.0,24.0,0.0,265.0,1,-0.3197854173487845,-0.5644082489401513
756,V1,d09142021,0au00,memory_test,1.0,12.0,1.0,53.0,43.0,0.0,1483.0,43.0,,,0,0.6069806565663917,
757,V1,d09142021,0au00,memory_test,0.0,13.0,1.0,49.0,44.0,0.0,1822.0,49.0,,,0,1.3497080775055044,
758,V1,d09142021,0au00,memory_test,0.0,14.0,0.0,29.0,9.0,0.0,1494.0,,,,1,0.6310809563608761,
759,V1,d09142021,0au00,memory_test,0.0,15.0,0.0,51.0,0.0,0.0,1718.0,,,,1,1.1218506976303784,
760,V1,d09142021,0au00,memory_test,0.0,16.0,1.0,3.0,0.0,1.0,759.0,3.0,1.0,224.0,1,-0.9792572571796782,-0.6284745230446536
761,V1,d09142021,0au00,memory_test,0.0,17.0,1.0,7.0,9.0,1.0,1000.0,9.0,0.0,536.0,1,-0.4512415980459726,-0.14094580302990495
762,V1,d09142021,0au00,memory_test,1.0,18.0,0.0,53.0,16.0,0.0,799.0,,,,1,-0.8916198033815528,
763,V1,d09142021,0au00,memory_test,1.0,19.0,1.0,11.0,22.0,1.0,1103.0,22.0,0.0,553.0,1,-0.2255751545157997,-0.11438173815730647
764,V1,d09142021,0au00,memory_test,1.0,20.0,1.0,60.0,69.0,1.0,991.0,60.0,1.0,243.0,1,-0.4709600251505508,-0.5987852740693964
765,V1,d09142021,0au00,memory_test,1.0,21.0,1.0,67.0,16.0,1.0,613.0,16.0,0.0,650.0,1,-1.2991339635428358,0.037189690821637804
766,V1,d09142021,0au00,memory_test,0.0,22.0,1.0,29.0,51.0,1.0,631.0,51.0,0.0,365.0,1,-1.2596971093336795,-0.4081490438072191
767,V1,d09142021,0au00,memory_test,1.0,23.0,1.0,2.0,48.0,1.0,1041.0,2.0,0.0,589.0,1,-0.3614132079028941,-0.05812842430945087
768,V1,d09172021,Kx4Qh,memory_test,1.0,0.0,0.0,9.0,63.0,1.0,6398.0,,0.0,5681.0,0,2.155208598163633,2.7486255583053927
769,V1,d09172021,Kx4Qh,memory_test,0.0,1.0,0.0,0.0,20.0,0.0,5616.0,,,,1,1.654646085382128,
770,V1,d09172021,Kx4Qh,memory_test,0.0,2.0,1.0,30.0,42.0,1.0,3061.0,30.0,1.0,1691.0,1,0.01917649438884824,0.02785550294770956
771,V1,d09172021,Kx4Qh,memory_test,0.0,3.0,1.0,60.0,14.0,1.0,2483.0,60.0,0.0,4431.0,1,-0.3508044933192205,1.8962539870780488
772,V1,d09172021,Kx4Qh,memory_test,1.0,4.0,1.0,36.0,69.0,1.0,2528.0,36.0,1.0,1324.0,1,-0.3219997451412567,-0.2224007903646388
773,V1,d09172021,Kx4Qh,memory_test,1.0,5.0,1.0,40.0,35.0,1.0,1581.0,35.0,0.0,727.0,1,-0.9281796679086288,-0.6294934527828185
774,V1,d09172021,Kx4Qh,memory_test,0.0,6.0,0.0,57.0,4.0,1.0,1164.0,,0.0,391.0,0,-1.1951036676910938,-0.8586109311287288
775,V1,d09172021,Kx4Qh,memory_test,0.0,7.0,0.0,30.0,51.0,1.0,4207.0,,1.0,3408.0,0,0.7527374146543271,1.19867309318559
776,V1,d09172021,Kx4Qh,memory_test,1.0,8.0,1.0,48.0,38.0,1.0,1569.0,48.0,1.0,501.0,1,-0.9358609340894192,-0.7836022328607224
777,V1,d09172021,Kx4Qh,memory_test,0.0,9.0,0.0,62.0,54.0,1.0,7222.0,,0.0,1388.0,0,2.682655542577904,-0.17875936591779876
778,V1,d09172021,Kx4Qh,memory_test,0.0,10.0,0.0,14.0,15.0,0.0,3706.0,,,,1,0.4320445516063298,
779,V1,d09172021,Kx4Qh,memory_test,1.0,11.0,0.0,37.0,67.0,1.0,2565.0,,1.0,929.0,0,-0.2983158410838197,-0.4917502068724797
780,V1,d09172021,Kx4Qh,memory_test,1.0,12.0,0.0,38.0,35.0,1.0,3244.0,,0.0,1809.0,0,0.13631580364590115,0.10831937927157087
781,V1,d09172021,Kx4Qh,memory_test,1.0,13.0,0.0,36.0,40.0,0.0,3177.0,,,,1,0.09342873413648832,
782,V1,d09172021,Kx4Qh,memory_test,1.0,14.0,0.0,48.0,56.0,1.0,2378.0,,1.0,1132.0,0,-0.4180155724011361,-0.3533250637051589
783,V1,d09172021,Kx4Qh,memory_test,0.0,15.0,0.0,60.0,42.0,1.0,2453.0,,1.0,1081.0,0,-0.3700076587711964,-0.3881018238112346
784,V1,d09172021,Kx4Qh,memory_test,1.0,16.0,1.0,63.0,67.0,1.0,3044.0,63.0,1.0,327.0,1,0.00829470063272857,-0.9022523555755688
785,V1,d09172021,Kx4Qh,memory_test,1.0,17.0,1.0,37.0,56.0,1.0,1208.0,37.0,1.0,384.0,1,-1.1669390250281957,-0.8633842119276018
786,V1,d09172021,Kx4Qh,memory_test,0.0,18.0,1.0,57.0,62.0,0.0,2758.0,57.0,,,0,-0.1747754766761082,
787,V1,d09172021,Kx4Qh,memory_test,0.0,19.0,1.0,51.0,20.0,1.0,1986.0,20.0,0.0,341.0,1,-0.6689369343069543,-0.8927057939778226
788,V1,d09172021,Kx4Qh,memory_test,1.0,20.0,1.0,28.0,9.0,1.0,1637.0,28.0,1.0,2158.0,1,-0.8923337590649405,0.3463015219582455
789,V1,d09172021,Kx4Qh,memory_test,1.0,21.0,0.0,69.0,28.0,1.0,2361.0,,1.0,478.0,0,-0.42889736615725577,-0.7992858697713056
790,V1,d09172021,Kx4Qh,memory_test,0.0,22.0,1.0,54.0,0.0,1.0,4306.0,54.0,1.0,1755.0,1,0.8161078606458475,0.0714969273945496
791,V1,d09172021,Kx4Qh,memory_test,0.0,23.0,1.0,4.0,15.0,1.0,2093.0,15.0,0.0,3067.0,1,-0.6004456441949071,0.9661461285547704
792,V1,d09142021,SSqcE,memory_test,0.0,0.0,0.0,42.0,41.0,0.0,4821.0,,,,1,3.119202667851338,
793,V1,d09142021,SSqcE,memory_test,0.0,1.0,1.0,61.0,5.0,0.0,2545.0,61.0,,,0,0.7796400533167356,
794,V1,d09142021,SSqcE,memory_test,1.0,2.0,1.0,10.0,32.0,1.0,1006.0,32.0,0.0,4028.0,1,-0.8023401152987096,3.1515057935723423
795,V1,d09142021,SSqcE,memory_test,0.0,3.0,1.0,48.0,39.0,0.0,3843.0,39.0,,,0,2.1138897341892813,
796,V1,d09142021,SSqcE,memory_test,1.0,4.0,0.0,12.0,33.0,1.0,2069.0,,1.0,1289.0,0,0.2903466418411333,0.4249877466789631
797,V1,d09142021,SSqcE,memory_test,1.0,5.0,0.0,18.0,47.0,1.0,2428.0,,0.0,1985.0,0,0.6593725551179006,1.1178159907964484
798,V1,d09142021,SSqcE,memory_test,1.0,6.0,1.0,68.0,12.0,0.0,1255.0,12.0,,,0,-0.5463862088755479,
799,V1,d09142021,SSqcE,memory_test,1.0,7.0,0.0,64.0,59.0,1.0,1693.0,,1.0,759.0,0,-0.09615403613119118,-0.10259697944498396
800,V1,d09142021,SSqcE,memory_test,1.0,8.0,0.0,68.0,32.0,1.0,1821.0,,0.0,1108.0,0,0.035420662753004394,0.24481258549323776
801,V1,d09142021,SSqcE,memory_test,0.0,9.0,0.0,52.0,48.0,1.0,1784.0,,1.0,317.0,0,-0.002612648643208389,-0.5425827321747663
802,V1,d09142021,SSqcE,memory_test,1.0,10.0,1.0,47.0,33.0,1.0,2030.0,47.0,1.0,269.0,1,0.25025747577485496,-0.5903639903897652
803,V1,d09142021,SSqcE,memory_test,1.0,11.0,1.0,67.0,11.0,1.0,1865.0,11.0,1.0,212.0,1,0.08064946549444663,-0.6471042345200765
804,V1,d09142021,SSqcE,memory_test,0.0,12.0,0.0,49.0,61.0,0.0,2075.0,,,,1,0.29651420585133004,
805,V1,d09142021,SSqcE,memory_test,0.0,13.0,1.0,42.0,52.0,0.0,1238.0,52.0,,,0,-0.5638609735711051,
806,V1,d09142021,SSqcE,memory_test,0.0,14.0,1.0,60.0,51.0,1.0,2230.0,60.0,1.0,291.0,1,0.4558429427814106,-0.568464247041224
807,V1,d09142021,SSqcE,memory_test,0.0,15.0,0.0,39.0,51.0,1.0,1744.0,,1.0,406.0,0,-0.043729742044519515,-0.4539883159011223
808,V1,d09142021,SSqcE,memory_test,0.0,16.0,1.0,2.0,34.0,0.0,814.0,34.0,,,0,-0.999702163625003,
809,V1,d09142021,SSqcE,memory_test,0.0,17.0,0.0,60.0,2.0,0.0,389.0,,,,1,-1.4365712810139335,
810,V1,d09142021,SSqcE,memory_test,1.0,18.0,1.0,18.0,64.0,1.0,982.0,64.0,0.0,679.0,1,-0.8270103713394963,-0.1822324098033156
811,V1,d09142021,SSqcE,memory_test,1.0,19.0,0.0,11.0,10.0,0.0,898.0,,,,1,-0.9133562674822496,
812,V1,d09142021,SSqcE,memory_test,0.0,20.0,1.0,41.0,49.0,1.0,1783.0,41.0,1.0,304.0,1,-0.0036405759782411674,-0.5555234896079951
813,V1,d09142021,SSqcE,memory_test,1.0,21.0,1.0,59.0,17.0,1.0,1212.0,17.0,0.0,652.0,1,-0.5905870842819574,-0.20910936754925247
814,V1,d09142021,SSqcE,memory_test,1.0,22.0,0.0,67.0,17.0,1.0,787.0,,0.0,317.0,0,-1.027456201670888,-0.5425827321747663
815,V1,d09142021,SSqcE,memory_test,0.0,23.0,0.0,5.0,34.0,1.0,1565.0,,0.0,315.0,0,-0.2277287350153868,-0.5445736179337245
816,V1,d09142021,hBnSx,memory_test,0.0,0.0,1.0,16.0,13.0,0.0,3091.0,16.0,,,0,2.728843283542364,
817,V1,d09142021,hBnSx,memory_test,1.0,1.0,1.0,59.0,21.0,0.0,1791.0,59.0,,,0,0.20430924509842735,
818,V1,d09142021,hBnSx,memory_test,1.0,2.0,1.0,26.0,14.0,1.0,1518.0,26.0,1.0,2890.0,1,-0.32584290297479923,2.2372373494036566
819,V1,d09142021,hBnSx,memory_test,0.0,3.0,1.0,64.0,38.0,1.0,1724.0,64.0,1.0,1861.0,1,0.0741986446555476,1.0640481180902452
820,V1,d09142021,hBnSx,memory_test,1.0,4.0,0.0,20.0,14.0,1.0,2083.0,,0.0,1443.0,0,0.7713584291181422,0.587475621793835
821,V1,d09142021,hBnSx,memory_test,0.0,5.0,0.0,3.0,49.0,0.0,1078.0,,,,1,-1.1803005775250546,
822,V1,d09142021,hBnSx,memory_test,1.0,6.0,0.0,55.0,63.0,0.0,2067.0,,,,1,0.7402872409526784,
823,V1,d09142021,hBnSx,memory_test,1.0,7.0,0.0,68.0,33.0,0.0,1889.0,,,,1,0.3946202726118933,
824,V1,d09142021,hBnSx,memory_test,0.0,8.0,1.0,51.0,49.0,1.0,1742.0,51.0,1.0,276.0,1,0.1091537313416944,-0.7430509408327458
825,V1,d09142021,hBnSx,memory_test,1.0,9.0,0.0,46.0,26.0,0.0,2035.0,,,,1,0.6781448646217507,
826,V1,d09142021,hBnSx,memory_test,1.0,10.0,0.0,6.0,21.0,0.0,1646.0,,,,1,-0.07727339765108858,
827,V1,d09142021,hBnSx,memory_test,0.0,11.0,0.0,13.0,40.0,0.0,1412.0,,,,1,-0.5316895245709969,
828,V1,d09142021,hBnSx,memory_test,0.0,12.0,0.0,51.0,11.0,1.0,1618.0,,1.0,271.0,0,-0.13164797694065028,-0.748751568778875
829,V1,d09142021,hBnSx,memory_test,1.0,13.0,1.0,6.0,68.0,1.0,1159.0,6.0,0.0,1461.0,1,-1.023002687437394,0.6079978823999005
830,V1,d09142021,hBnSx,memory_test,1.0,14.0,0.0,59.0,5.0,1.0,1967.0,,1.0,772.0,0,0.5460923149185295,-0.17754864857671832
831,V1,d09142021,hBnSx,memory_test,1.0,15.0,1.0,55.0,33.0,0.0,2713.0,33.0,,,0,1.9947864631332808,
832,V1,d09142021,hBnSx,memory_test,0.0,16.0,1.0,3.0,17.0,0.0,1479.0,3.0,,,0,-0.4015789241281173,
833,V1,d09142021,hBnSx,memory_test,0.0,17.0,0.0,22.0,64.0,0.0,1606.0,,,,1,-0.15495136806474816,
834,V1,d09142021,hBnSx,memory_test,0.0,18.0,1.0,11.0,47.0,1.0,1074.0,47.0,0.0,296.0,1,-1.1880683745664204,-0.7202484290482285
835,V1,d09142021,hBnSx,memory_test,0.0,19.0,1.0,40.0,22.0,1.0,2057.0,40.0,0.0,353.0,1,0.7208677483492636,-0.6552612704623544
836,V1,d09142021,hBnSx,memory_test,0.0,20.0,0.0,17.0,16.0,0.0,1239.0,,,,1,-0.8676467466100747,
837,V1,d09142021,hBnSx,memory_test,0.0,21.0,0.0,47.0,38.0,0.0,1198.0,,,,1,-0.947266666284076,
838,V1,d09142021,hBnSx,memory_test,1.0,22.0,1.0,20.0,5.0,1.0,863.0,20.0,1.0,314.0,1,-1.597819668498475,-0.6997261684421631
839,V1,d09142021,hBnSx,memory_test,1.0,23.0,1.0,46.0,63.0,1.0,1410.0,63.0,0.0,268.0,1,-0.5355734230916801,-0.7521719455465526
840,V1,d09142021,vk7bM,memory_test,1.0,0.0,0.0,47.0,21.0,0.0,8158.0,,,,1,4.009886710931712,
841,V1,d09142021,vk7bM,memory_test,0.0,1.0,1.0,2.0,69.0,1.0,4152.0,69.0,0.0,4653.0,1,0.8767981458295704,2.087615244956948
842,V1,d09142021,vk7bM,memory_test,0.0,2.0,0.0,38.0,1.0,1.0,3530.0,,0.0,3139.0,0,0.3903325723164571,0.4924555190738254
843,V1,d09142021,vk7bM,memory_test,0.0,3.0,1.0,58.0,22.0,1.0,4088.0,58.0,0.0,2318.0,1,0.8267438102912436,-0.3725551380926499
844,V1,d09142021,vk7bM,memory_test,1.0,4.0,1.0,5.0,28.0,0.0,2943.0,28.0,,,0,-0.06875953644913366,
845,V1,d09142021,vk7bM,memory_test,0.0,5.0,1.0,50.0,23.0,0.0,2898.0,50.0,,,0,-0.10395399112451964,
846,V1,d09142021,vk7bM,memory_test,1.0,6.0,1.0,67.0,21.0,0.0,3097.0,21.0,,,0,0.05168370843996512,
847,V1,d09142021,vk7bM,memory_test,0.0,7.0,1.0,38.0,44.0,1.0,2485.0,44.0,0.0,2286.0,1,-0.4269608751452845,-0.4062705352051069
848,V1,d09142021,vk7bM,memory_test,0.0,8.0,1.0,9.0,33.0,1.0,2335.0,9.0,1.0,2316.0,1,-0.5442757240632379,-0.3746623504121785
849,V1,d09142021,vk7bM,memory_test,1.0,9.0,0.0,5.0,34.0,1.0,2900.0,,0.0,1615.0,0,-0.10238979313894694,-1.11324026840694
850,V1,d09142021,vk7bM,memory_test,1.0,10.0,1.0,8.0,47.0,1.0,1936.0,8.0,1.0,3399.0,1,-0.8563332221849939,0.7663931206125386
851,V1,d09142021,vk7bM,memory_test,1.0,11.0,1.0,46.0,64.0,1.0,2344.0,46.0,1.0,3017.0,1,-0.5372368331281607,0.363915567582583
852,V1,d09142021,vk7bM,memory_test,0.0,12.0,0.0,2.0,44.0,1.0,2934.0,,0.0,1331.0,0,-0.07579842738421086,-1.412464417779996
853,V1,d09142021,vk7bM,memory_test,0.0,13.0,0.0,23.0,58.0,0.0,2215.0,,,,1,-0.6381276031976005,
854,V1,d09142021,vk7bM,memory_test,0.0,14.0,1.0,1.0,20.0,0.0,2406.0,1.0,,,0,-0.4887466955754067,
855,V1,d09142021,vk7bM,memory_test,1.0,15.0,1.0,19.0,34.0,0.0,3332.0,34.0,,,0,0.2354769717447587,
856,V1,d09142021,vk7bM,memory_test,1.0,16.0,0.0,28.0,64.0,0.0,2787.0,,,,1,-0.19076697932380512,
857,V1,d09142021,vk7bM,memory_test,1.0,17.0,0.0,8.0,19.0,0.0,1845.0,,,,1,-0.927504230528552,
858,V1,d09142021,vk7bM,memory_test,0.0,18.0,0.0,69.0,22.0,0.0,1427.0,,,,1,-1.2544216095132488,
859,V1,d09142021,vk7bM,memory_test,1.0,19.0,0.0,46.0,66.0,0.0,2787.0,,,,1,-0.19076697932380512,
860,V1,d09142021,vk7bM,memory_test,1.0,20.0,1.0,37.0,66.0,0.0,3803.0,37.0,,,0,0.6038455973471323,
861,V1,d09142021,vk7bM,memory_test,0.0,21.0,0.0,50.0,33.0,0.0,2951.0,,,,1,-0.0625027445068428,
862,V1,d09142021,vk7bM,memory_test,0.0,22.0,0.0,9.0,20.0,1.0,2462.0,,1.0,2642.0,0,-0.4449491519793707,-0.03118674232902264
863,V1,d09142021,vk7bM,memory_test,1.0,23.0,0.0,67.0,37.0,0.0,2927.0,,,,1,-0.08127312033371534,
864,V1,d09172021,6NBxI,memory_test,1.0,0.0,0.0,55.0,25.0,0.0,1764.0,,,,1,0.2866503480757617,
865,V1,d09172021,6NBxI,memory_test,1.0,1.0,1.0,32.0,4.0,0.0,2501.0,32.0,,,0,2.414334509537813,
866,V1,d09172021,6NBxI,memory_test,1.0,2.0,0.0,15.0,38.0,0.0,1898.0,,,,1,0.6735020137961347,
867,V1,d09172021,6NBxI,memory_test,0.0,3.0,0.0,3.0,36.0,0.0,2089.0,,,,1,1.2249099850841292,
868,V1,d09172021,6NBxI,memory_test,0.0,4.0,1.0,36.0,59.0,0.0,1290.0,36.0,,,0,-1.0817652455918263,
869,V1,d09172021,6NBxI,memory_test,1.0,5.0,1.0,22.0,5.0,1.0,1413.0,5.0,0.0,3513.0,1,-0.7266700598932752,1.8185200003056619
870,V1,d09172021,6NBxI,memory_test,0.0,6.0,0.0,53.0,26.0,0.0,2076.0,,,,1,1.1873795996037946,
871,V1,d09172021,6NBxI,memory_test,0.0,7.0,1.0,3.0,47.0,0.0,1578.0,47.0,,,0,-0.2503228595659501,
872,V1,d09172021,6NBxI,memory_test,1.0,8.0,0.0,43.0,5.0,0.0,1977.0,,,,1,0.9015712794073996,
873,V1,d09172021,6NBxI,memory_test,0.0,9.0,1.0,26.0,0.0,1.0,1846.0,26.0,1.0,1186.0,1,0.523380471874796,-0.2927535939291337
874,V1,d09172021,6NBxI,memory_test,0.0,10.0,0.0,0.0,47.0,0.0,1349.0,,,,1,-0.9114350345656922,
875,V1,d09172021,6NBxI,memory_test,1.0,11.0,0.0,7.0,49.0,0.0,1515.0,,,,1,-0.4322008815091106,
876,V1,d09172021,6NBxI,memory_test,1.0,12.0,1.0,55.0,7.0,0.0,1656.0,55.0,,,0,-0.02514054668394193,
877,V1,d09172021,6NBxI,memory_test,1.0,13.0,1.0,15.0,57.0,1.0,1819.0,57.0,0.0,2045.0,1,0.4454327481848701,0.4866121204875786
878,V1,d09172021,6NBxI,memory_test,1.0,14.0,0.0,32.0,22.0,0.0,1427.0,,,,1,-0.6862527216836839,
879,V1,d09172021,6NBxI,memory_test,1.0,15.0,1.0,43.0,49.0,0.0,1288.0,49.0,,,0,-1.0875391510503396,
880,V1,d09172021,6NBxI,memory_test,0.0,16.0,0.0,50.0,59.0,1.0,1715.0,,1.0,663.0,0,0.14518966434219244,-0.7672684584692275
881,V1,d09172021,6NBxI,memory_test,0.0,17.0,0.0,20.0,48.0,0.0,1754.0,,,,1,0.2577808207831966,
882,V1,d09172021,6NBxI,memory_test,0.0,18.0,1.0,48.0,50.0,1.0,1578.0,50.0,0.0,759.0,1,-0.2503228595659501,-0.6801682156473365
883,V1,d09172021,6NBxI,memory_test,1.0,19.0,0.0,57.0,4.0,0.0,1492.0,,,,1,-0.4986007942820104,
884,V1,d09172021,6NBxI,memory_test,0.0,20.0,1.0,29.0,20.0,0.0,788.0,20.0,,,0,-2.5310155156785967,
885,V1,d09172021,6NBxI,memory_test,0.0,21.0,1.0,53.0,60.0,1.0,1996.0,60.0,0.0,886.0,1,0.9564233812632732,-0.5649418527475432
886,V1,d09172021,6NBxI,memory_test,1.0,22.0,1.0,38.0,25.0,0.0,1665.0,38.0,,,0,0.0008420278793667026,
887,V1,d09172021,6NBxI,memory_test,0.0,23.0,0.0,60.0,29.0,0.0,1479.0,,,,1,-0.5361311797623451,
888,V1,d09172021,c3qx7,memory_test,0.0,0.0,1.0,64.0,53.0,1.0,4485.0,53.0,0.0,3171.0,1,1.6152442024781148,0.9637169896056345
889,V1,d09172021,c3qx7,memory_test,0.0,1.0,1.0,23.0,60.0,1.0,2780.0,60.0,0.0,4115.0,1,0.034988075537827484,2.2457099719352405
890,V1,d09172021,c3qx7,memory_test,0.0,2.0,0.0,64.0,33.0,0.0,2663.0,,,,1,-0.0734517877184855,
891,V1,d09172021,c3qx7,memory_test,1.0,3.0,1.0,28.0,12.0,1.0,2768.0,28.0,1.0,2146.0,1,0.023866038280769736,-0.4282775092162372
892,V1,d09172021,c3qx7,memory_test,1.0,4.0,0.0,12.0,24.0,0.0,1916.0,,,,1,-0.7657986069703299,
893,V1,d09172021,c3qx7,memory_test,1.0,5.0,0.0,32.0,29.0,1.0,2508.0,,1.0,2851.0,0,-0.217111435622148,0.5291430972905136
894,V1,d09172021,c3qx7,memory_test,1.0,6.0,1.0,1.0,56.0,0.0,2550.0,1.0,,,0,-0.17818430522244588,
895,V1,d09172021,c3qx7,memory_test,1.0,7.0,0.0,5.0,1.0,0.0,2004.0,,,,1,-0.6842370004185732,
896,V1,d09172021,c3qx7,memory_test,1.0,8.0,0.0,58.0,31.0,0.0,2127.0,,,,1,-0.5702361185337312,
897,V1,d09172021,c3qx7,memory_test,1.0,9.0,1.0,7.0,31.0,1.0,4052.0,7.0,1.0,2247.0,1,1.213924024785948,-0.2911151244542772
898,V1,d09172021,c3qx7,memory_test,0.0,10.0,0.0,20.0,23.0,0.0,1509.0,,,,1,-1.1430210372722052,
899,V1,d09172021,c3qx7,memory_test,1.0,11.0,1.0,40.0,24.0,1.0,2231.0,24.0,0.0,2659.0,1,-0.4738451289725642,0.26839876190144096
900,V1,d09172021,c3qx7,memory_test,0.0,12.0,1.0,42.0,33.0,1.0,3314.0,33.0,0.0,2057.0,1,0.529918733476897,-0.5491433730163802
901,V1,d09172021,c3qx7,memory_test,0.0,13.0,1.0,21.0,22.0,1.0,2540.0,21.0,1.0,2529.0,1,-0.18745266960332732,0.09185311814842312
902,V1,d09172021,c3qx7,memory_test,1.0,14.0,0.0,40.0,7.0,0.0,1587.0,,,,1,-1.0707277951013296,
903,V1,d09172021,c3qx7,memory_test,1.0,15.0,1.0,58.0,29.0,0.0,2927.0,58.0,,,0,0.1712330319367848,
904,V1,d09172021,c3qx7,memory_test,0.0,16.0,0.0,11.0,22.0,0.0,6108.0,,,,1,3.1194997414951744,
905,V1,d09172021,c3qx7,memory_test,1.0,17.0,0.0,28.0,56.0,0.0,1724.0,,,,1,-0.9437512030832538,
906,V1,d09172021,c3qx7,memory_test,0.0,18.0,1.0,14.0,11.0,1.0,2086.0,11.0,0.0,2106.0,1,-0.6082364124953452,-0.4825992457556274
907,V1,d09172021,c3qx7,memory_test,0.0,19.0,0.0,38.0,53.0,0.0,3285.0,,,,1,0.5030404767723408,
908,V1,d09172021,c3qx7,memory_test,0.0,20.0,0.0,60.0,14.0,0.0,1635.0,,,,1,-1.0262396460730987,
909,V1,d09172021,c3qx7,memory_test,1.0,21.0,1.0,5.0,32.0,1.0,3938.0,32.0,0.0,1769.0,1,1.1082646708438997,-0.9402598760999892
910,V1,d09172021,c3qx7,memory_test,0.0,22.0,1.0,38.0,20.0,1.0,3234.0,20.0,0.0,1425.0,1,0.4557718184298453,-1.4074268103387442
911,V1,d09172021,c3qx7,memory_test,0.0,23.0,0.0,42.0,21.0,0.0,1843.0,,,,1,-0.8334576669507645,
936,V1,d09142021,uyN4i,memory_test,0.0,0.0,0.0,53.0,3.0,1.0,5482.0,,1.0,1892.0,0,4.373794355232609,3.5302101649717503
937,V1,d09142021,uyN4i,memory_test,1.0,1.0,0.0,64.0,7.0,1.0,341.0,,0.0,445.0,0,-0.10564720664813064,0.4179757364294335
938,V1,d09142021,uyN4i,memory_test,0.0,2.0,0.0,46.0,14.0,0.0,104.0,,,,1,-0.3121493755191159,
939,V1,d09142021,uyN4i,memory_test,1.0,3.0,0.0,42.0,39.0,1.0,227.0,,1.0,69.0,0,-0.20497736382657925,-0.3907320349125922
940,V1,d09142021,uyN4i,memory_test,1.0,4.0,1.0,19.0,42.0,0.0,84.0,19.0,,,0,-0.32957571888375603,
941,V1,d09142021,uyN4i,memory_test,1.0,5.0,0.0,28.0,51.0,1.0,0.0,,0.0,101.0,0,-0.4027663610152444,-0.32190584160688784
942,V1,d09142021,uyN4i,memory_test,1.0,6.0,1.0,28.0,32.0,1.0,99.0,28.0,1.0,81.0,1,-0.3165059613602759,-0.364922212422953
943,V1,d09142021,uyN4i,memory_test,1.0,7.0,1.0,7.0,22.0,1.0,241.0,7.0,0.0,38.0,1,-0.1927789234713312,-0.4574074096774932
944,V1,d09142021,uyN4i,memory_test,0.0,8.0,0.0,2.0,24.0,1.0,266.0,,1.0,160.0,0,-0.17099599426553105,-0.19500754769949552
945,V1,d09142021,uyN4i,memory_test,1.0,9.0,0.0,19.0,17.0,1.0,155.0,,1.0,33.0,0,-0.26771219993928363,-0.4681615023815095
946,V1,d09142021,uyN4i,memory_test,0.0,10.0,0.0,68.0,27.0,1.0,304.0,,1.0,54.0,0,-0.13788594187271486,-0.4229943130246411
947,V1,d09142021,uyN4i,memory_test,0.0,11.0,1.0,27.0,0.0,1.0,61.0,27.0,1.0,156.0,1,-0.3496160137530921,-0.20361082186270854
948,V1,d09142021,uyN4i,memory_test,1.0,12.0,1.0,39.0,51.0,0.0,45.0,39.0,,,0,-0.3635570884448042,
949,V1,d09142021,uyN4i,memory_test,0.0,13.0,0.0,49.0,55.0,0.0,270.0,,,,1,-0.16751072559260302,
950,V1,d09142021,uyN4i,memory_test,0.0,14.0,1.0,68.0,46.0,1.0,23.0,46.0,1.0,178.0,1,-0.3827260661459083,-0.15629281396503686
951,V1,d09142021,uyN4i,memory_test,1.0,15.0,1.0,64.0,1.0,1.0,56.0,1.0,1.0,158.0,1,-0.3539725995942521,-0.19930918478110204
952,V1,d09142021,uyN4i,memory_test,0.0,16.0,1.0,55.0,3.0,0.0,78.0,3.0,,,0,-0.33480362189314805,
953,V1,d09142021,uyN4i,memory_test,1.0,17.0,0.0,32.0,1.0,0.0,2088.0,,,,1,1.4165438862531825,
954,V1,d09142021,uyN4i,memory_test,0.0,18.0,0.0,11.0,0.0,1.0,143.0,,1.0,73.0,0,-0.2781680059580677,-0.3821287607493791
955,V1,d09142021,uyN4i,memory_test,1.0,19.0,0.0,58.0,22.0,1.0,606.0,,1.0,146.0,0,0.12525184293335076,-0.2251190072707412
956,V1,d09142021,uyN4i,memory_test,0.0,20.0,1.0,11.0,53.0,1.0,36.0,11.0,1.0,176.0,1,-0.37139894295889225,-0.16059445104664338
957,V1,d09142021,uyN4i,memory_test,0.0,21.0,1.0,49.0,2.0,0.0,299.0,49.0,,,0,-0.14224252771387486,
958,V1,d09142021,uyN4i,memory_test,0.0,22.0,1.0,14.0,24.0,0.0,33.0,24.0,,,0,-0.37401289446358826,
959,V1,d09142021,uyN4i,memory_test,1.0,23.0,1.0,58.0,17.0,0.0,53.0,58.0,,,0,-0.35658655109894816,
960,V1,d09172021,tSAyb,memory_test,1.0,0.0,0.0,30.0,14.0,0.0,3518.0,,,,1,0.12490145063540765,
961,V1,d09172021,tSAyb,memory_test,1.0,1.0,0.0,5.0,46.0,0.0,2561.0,,,,1,-0.4161654143578109,
962,V1,d09172021,tSAyb,memory_test,0.0,2.0,0.0,19.0,47.0,0.0,2001.0,,,,1,-0.7327771639881163,
963,V1,d09172021,tSAyb,memory_test,1.0,3.0,1.0,14.0,51.0,1.0,1235.0,51.0,0.0,2156.0,1,-1.1658568072324271,1.5909089818196027
964,V1,d09172021,tSAyb,memory_test,1.0,4.0,0.0,0.0,55.0,1.0,3438.0,,0.0,1351.0,0,0.07967120068822113,-0.12947395385456728
965,V1,d09172021,tSAyb,memory_test,0.0,5.0,1.0,31.0,63.0,1.0,6004.0,31.0,1.0,1466.0,1,1.530431467744228,0.11629503695602846
966,V1,d09172021,tSAyb,memory_test,1.0,6.0,1.0,17.0,49.0,1.0,1475.0,17.0,1.0,774.0,1,-1.0301660573908675,-1.362593151225991
967,V1,d09172021,tSAyb,memory_test,0.0,7.0,1.0,20.0,6.0,1.0,973.0,6.0,0.0,1580.0,1,-1.313985875809463,0.3599269061074016
968,V1,d09172021,tSAyb,memory_test,1.0,8.0,1.0,55.0,61.0,0.0,1342.0,55.0,,,0,-1.1053613479280648,
969,V1,d09172021,tSAyb,memory_test,0.0,9.0,0.0,7.0,63.0,0.0,2948.0,,,,1,-0.19736408023829616,
970,V1,d09172021,tSAyb,memory_test,1.0,10.0,0.0,53.0,3.0,1.0,3100.0,,1.0,1256.0,0,-0.11142660533864182,-0.3325005114807116
971,V1,d09172021,tSAyb,memory_test,0.0,11.0,0.0,42.0,57.0,1.0,3035.0,,1.0,1033.0,0,-0.14817618342073086,-0.809078641487345
972,V1,d09172021,tSAyb,memory_test,0.0,12.0,1.0,42.0,19.0,1.0,1129.0,19.0,0.0,1153.0,1,-1.2257868884124492,-0.5526240423806364
973,V1,d09172021,tSAyb,memory_test,0.0,13.0,1.0,7.0,47.0,0.0,4640.0,7.0,,,0,0.7592557061446983,
974,V1,d09172021,tSAyb,memory_test,1.0,14.0,0.0,49.0,51.0,1.0,4848.0,,0.0,1395.0,0,0.8768543560073832,-0.03544060084877415
975,V1,d09172021,tSAyb,memory_test,0.0,15.0,0.0,67.0,6.0,0.0,4652.0,,,,1,0.7660402436367763,
976,V1,d09172021,tSAyb,memory_test,1.0,16.0,0.0,61.0,17.0,0.0,2958.0,,,,1,-0.19171029899489786,
977,V1,d09172021,tSAyb,memory_test,1.0,17.0,1.0,3.0,5.0,0.0,2993.0,5.0,,,0,-0.17192206464300375,
978,V1,d09172021,tSAyb,memory_test,0.0,18.0,0.0,31.0,12.0,0.0,4626.0,,,,1,0.7513404124039406,
979,V1,d09172021,tSAyb,memory_test,0.0,19.0,1.0,67.0,57.0,0.0,2662.0,57.0,,,0,-0.3590622237994879,
