,version,group,PID,phase,trial,stimulus_id,painting,rt,rating,zscored_rt,zscored_rating
60,V1,d09142021,CDRCj,rating,0.0,61.0,Grigb1.jpg,6.268,58.0,1.6354388546072582,0.0954321432315058
61,V1,d09142021,CDRCj,rating,1.0,47.0,Vina1n.jpg,4.038,71.0,0.09032779314469347,0.7106145541453451
62,V1,d09142021,CDRCj,rating,2.0,41.0,Picae1.jpg,6.085,29.0,1.5086427450791644,-1.2768978503455204
63,V1,d09142021,CDRCj,rating,3.0,68.0,Mondb1.jpg,5.671,62.0,1.2217925300811818,0.2847190388973025
64,V1,d09142021,CDRCj,rating,4.0,43.0,Clifb1.jpg,6.895,79.0,2.069871426596957,1.0891883454769389
65,V1,d09142021,CDRCj,rating,5.0,33.0,Kline1.jpg,3.741,79.0,-0.11545605674516395,1.0891883454769389
66,V1,d09142021,CDRCj,rating,6.0,54.0,Rohla1.jpg,5.638999999999999,80.0,1.1996205327866516,1.1365100693933878
67,V1,d09142021,CDRCj,rating,7.0,65.0,Roha1n.jpg,3.4619999999999997,82.0,-0.30876815815684805,1.2311535172262862
68,V1,d09142021,CDRCj,rating,8.0,48.0,Maca1n.jpg,5.015,67.0,0.7672665855433146,0.5213276584795484
69,V1,d09142021,CDRCj,rating,9.0,27.0,Gustc1.jpg,7.263,90.0,2.324849395484053,1.6097273085578796
70,V1,d09142021,CDRCj,rating,10.0,15.0,Lassc1.jpg,6.55,86.0,1.8308295807653048,1.420440412892083
71,V1,d09142021,CDRCj,rating,11.0,51.0,Lewic1.jpg,4.606,77.0,0.4838807451226022,0.9945448976440402
72,V1,d09142021,CDRCj,rating,12.0,39.0,Kupb1n.jpg,3.7510000000000003,61.0,-0.10852730759062347,0.2373973149808533
73,V1,d09142021,CDRCj,rating,13.0,30.0,Kraa1n.jpg,3.87,38.0,-0.026075192651589568,-0.8510023350974778
74,V1,d09142021,CDRCj,rating,14.0,45.0,Lasc1n.jpg,4.391,67.0,0.33491263829997825,0.5213276584795484
75,V1,d09142021,CDRCj,rating,15.0,49.0,Lewc1n.jpg,4.439,85.0,0.36817063424177343,1.3731186889756335
76,V1,d09142021,CDRCj,rating,16.0,16.0,Vincc1.jpg,3.471,32.0,-0.30253228391776155,-1.1349326785961729
77,V1,d09142021,CDRCj,rating,17.0,7.0,Macb1n.jpg,3.181,31.0,-0.5034660093994404,-1.182254402512622
78,V1,d09142021,CDRCj,rating,18.0,12.0,Klie1n.jpg,10.183,62.0,4.348044148609923,0.2847190388973025
79,V1,d09142021,CDRCj,rating,19.0,1.0,Monda1.jpg,4.51,91.0,0.41736475323901184,1.6570490324743288
80,V1,d09142021,CDRCj,rating,20.0,5.0,Pica1n.jpg,2.102,57.0,-1.2510780431743769,0.04811041931505662
81,V1,d09142021,CDRCj,rating,21.0,11.0,Clifa1.jpg,2.7680000000000002,63.0,-0.7896233494819695,0.3320407628137517
82,V1,d09142021,CDRCj,rating,22.0,2.0,Dekb1n.jpg,2.366,46.0,-1.0681590654945037,-0.4724285437658843
83,V1,d09142021,CDRCj,rating,23.0,9.0,Klind1.jpg,2.71,80.0,-0.8298100945783051,1.1365100693933878
84,V1,d09142021,CDRCj,rating,24.0,58.0,Klinc1.jpg,3.319,19.0,-0.4078492710667795,-1.7501150895100122
85,V1,d09142021,CDRCj,rating,25.0,23.0,Rohlb1.jpg,3.551,36.0,-0.2471022906814363,-0.9456457829303762
86,V1,d09142021,CDRCj,rating,26.0,66.0,Vinca1.jpg,2.702,32.0,-0.8353530939019377,-1.1349326785961729
87,V1,d09142021,CDRCj,rating,27.0,8.0,Picd1n.jpg,2.9419999999999997,64.0,-0.6690631141929619,0.3793624867302009
88,V1,d09142021,CDRCj,rating,28.0,29.0,Klinb1.jpg,4.43,41.0,0.3619347600026866,-0.7090371633481303
89,V1,d09142021,CDRCj,rating,29.0,26.0,Klid1n.jpg,3.1830000000000003,58.0,-0.5020802595685324,0.0954321432315058
90,V1,d09142021,CDRCj,rating,30.0,28.0,Pice1n.jpg,3.5269999999999997,27.0,-0.26373128865233386,-1.3715412981784187
91,V1,d09142021,CDRCj,rating,31.0,40.0,Vinc1n.jpg,3.535,35.0,-0.25818828932870136,-0.9929675068468252
92,V1,d09142021,CDRCj,rating,32.0,53.0,Macc1n.jpg,4.151,63.0,0.1686226585910025,0.3320407628137517
93,V1,d09142021,CDRCj,rating,33.0,32.0,Kupkb1.jpg,3.878,76.0,-0.020532193327957048,0.9472231737275909
94,V1,d09142021,CDRCj,rating,34.0,56.0,Clib1n.jpg,4.046,61.0,0.095870792468326,0.2373973149808533
95,V1,d09142021,CDRCj,rating,35.0,18.0,Krab1n.jpg,4.399,28.0,0.3404556376236108,-1.3242195742619696
96,V1,d09142021,CDRCj,rating,36.0,57.0,Lassa1.jpg,5.103,94.0,0.8282395781032724,1.7990142042236763
97,V1,d09142021,CDRCj,rating,37.0,35.0,Gusa1n.jpg,4.127,35.0,0.15199366062010491,-0.9929675068468252
98,V1,d09142021,CDRCj,rating,38.0,38.0,Krasa1.jpg,4.686,32.0,0.5393107383589274,-1.1349326785961729
99,V1,d09142021,CDRCj,rating,39.0,46.0,Lewb1n.jpg,3.775,59.0,-0.0918983096197259,0.142753867147955
100,V1,d09142021,CDRCj,rating,40.0,37.0,Deka1n.jpg,2.966,40.0,-0.6524341162220644,-0.7563588872645794
101,V1,d09142021,CDRCj,rating,41.0,3.0,Klib1n.jpg,3.19,27.0,-0.4972301351603539,-1.3715412981784187
102,V1,d09142021,CDRCj,rating,42.0,55.0,Clia1n.jpg,2.847,57.0,-0.7348862311610982,0.04811041931505662
103,V1,d09142021,CDRCj,rating,43.0,63.0,Lewia1.jpg,3.159,68.0,-0.5187092575394301,0.5686493823959976
104,V1,d09142021,CDRCj,rating,44.0,0.0,Monb1n.jpg,2.75,38.0,-0.8020950979601426,-0.8510023350974778
105,V1,d09142021,CDRCj,rating,45.0,69.0,Picad1.jpg,2.983,40.0,-0.6406552426593453,-0.7563588872645794
106,V1,d09142021,CDRCj,rating,46.0,19.0,Picc1n.jpg,2.799,76.0,-0.7681442271028934,0.9472231737275909
107,V1,d09142021,CDRCj,rating,47.0,52.0,Dekoa1.jpg,2.638,66.0,-0.8796970884909979,0.4740059345630993
108,V1,d09142021,CDRCj,rating,48.0,17.0,Picaa1.jpg,2.983,39.0,-0.6406552426593453,-0.8036806111810286
109,V1,d09142021,CDRCj,rating,49.0,10.0,Vinb1n.jpg,2.847,70.0,-0.7348862311610982,0.663292830228896
110,V1,d09142021,CDRCj,rating,50.0,6.0,Gusc1n.jpg,4.175,11.0,0.18525165656190007,-2.128688880841606
111,V1,d09142021,CDRCj,rating,51.0,50.0,Klic1n.jpg,3.335,28.0,-0.3967632724195145,-1.3242195742619696
112,V1,d09142021,CDRCj,rating,52.0,21.0,Kupkc1.jpg,2.494,67.0,-0.9794710763163832,0.5213276584795484
113,V1,d09142021,CDRCj,rating,53.0,13.0,Kupka1.jpg,2.086,38.0,-1.2621640418216418,-0.8510023350974778
114,V1,d09142021,CDRCj,rating,54.0,64.0,Vincb1.jpg,2.526,28.0,-0.9572990790218532,-1.3242195742619696
115,V1,d09142021,CDRCj,rating,55.0,14.0,Grib1n.jpg,4.247,74.0,0.2351386504745928,0.8525797258946927
116,V1,d09142021,CDRCj,rating,56.0,42.0,Mackc1.jpg,2.471,68.0,-0.9954071993718266,0.5686493823959976
117,V1,d09142021,CDRCj,rating,57.0,24.0,Lewa1n.jpg,3.534,81.0,-0.25888116424415564,1.183831793309837
118,V1,d09142021,CDRCj,rating,58.0,31.0,Picac1.jpg,2.826,68.0,-0.7494366043856335,0.5686493823959976
119,V1,d09142021,CDRCj,rating,59.0,44.0,Mackb1.jpg,3.273,42.0,-0.4397215171776664,-0.6617154394316811
120,V1,d09172021,S5lJ6,rating,0.0,23.0,Rohlb1.jpg,3.5239999999999996,33.0,-0.15006932860530606,-0.6007804005176643
121,V1,d09172021,S5lJ6,rating,1.0,55.0,Clia1n.jpg,2.9419999999999997,56.0,-0.2220017526279449,0.5685806047212306
122,V1,d09172021,S5lJ6,rating,2.0,9.0,Klind1.jpg,2.9410000000000003,71.0,-0.2221253478582244,1.331207347268336
123,V1,d09172021,S5lJ6,rating,3.0,62.0,Mona1n.jpg,4.501,61.0,-0.029316788622285074,0.8227895189035991
124,V1,d09172021,S5lJ6,rating,4.0,13.0,Kupka1.jpg,4.343,27.0,-0.04884483500643794,-0.9058310975365064
125,V1,d09172021,S5lJ6,rating,5.0,19.0,Picc1n.jpg,3.5010000000000003,33.0,-0.15291201890173334,-0.6007804005176643
126,V1,d09172021,S5lJ6,rating,6.0,12.0,Klie1n.jpg,3.867,59.0,-0.1076761646194553,0.7211059532306517
127,V1,d09172021,S5lJ6,rating,7.0,8.0,Picd1n.jpg,2.873,74.0,-0.2305298235172268,1.4837326957777572
128,V1,d09172021,S5lJ6,rating,8.0,7.0,Macb1n.jpg,2.76,46.0,-0.2444960845388045,0.0601627763564937
129,V1,d09172021,S5lJ6,rating,9.0,32.0,Kupkb1.jpg,4.059,31.0,-0.08394588040580121,-0.7024639661906117
130,V1,d09172021,S5lJ6,rating,10.0,28.0,Pice1n.jpg,3.779,83.0,-0.11855254488404675,1.9413087413060204
131,V1,d09172021,S5lJ6,rating,11.0,36.0,Gustb1.jpg,35.801,43.0,3.839213919124445,-0.09236257215292737
132,V1,d09172021,S5lJ6,rating,12.0,59.0,Macka1.jpg,1.8,30.0,-0.3631475056070748,-0.7533057490270854
133,V1,d09172021,S5lJ6,rating,13.0,60.0,Kupc1n.jpg,1.919,33.0,-0.3484396732038204,-0.6007804005176643
134,V1,d09172021,S5lJ6,rating,14.0,25.0,Dekob1.jpg,2.011,28.0,-0.3370689120181112,-0.8549893147000328
135,V1,d09172021,S5lJ6,rating,15.0,50.0,Klic1n.jpg,3.147,32.0,-0.19666473042065805,-0.6516221833541379
136,V1,d09172021,S5lJ6,rating,16.0,10.0,Vinb1n.jpg,1.916,26.0,-0.3488104588946588,-0.9566728803729802
137,V1,d09172021,S5lJ6,rating,17.0,45.0,Lasc1n.jpg,2.7560000000000002,8.0,-0.2449904654599223,-1.8718249714295068
138,V1,d09172021,S5lJ6,rating,18.0,44.0,Mackb1.jpg,2.556,31.0,-0.2697095115158119,-0.7024639661906117
139,V1,d09172021,S5lJ6,rating,19.0,40.0,Vinc1n.jpg,2.616,66.0,-0.26229379769904504,1.0769984330859677
140,V1,d09172021,S5lJ6,rating,20.0,30.0,Kraa1n.jpg,2.764,31.0,-0.2440017036176867,-0.7024639661906117
141,V1,d09172021,S5lJ6,rating,21.0,53.0,Macc1n.jpg,3.1860000000000004,38.0,-0.19184451643975955,-0.34657148633529583
142,V1,d09172021,S5lJ6,rating,22.0,17.0,Picaa1.jpg,2.316,28.0,-0.2993723667828795,-0.8549893147000328
143,V1,d09172021,S5lJ6,rating,23.0,57.0,Lassa1.jpg,3.177,58.0,-0.19295687351227456,0.6702641703941781
144,V1,d09172021,S5lJ6,rating,24.0,14.0,Grib1n.jpg,2.5810000000000004,61.0,-0.2666196307588257,0.8227895189035991
145,V1,d09172021,S5lJ6,rating,25.0,31.0,Picac1.jpg,3.042,26.0,-0.2096422296000001,-0.9566728803729802
146,V1,d09172021,S5lJ6,rating,26.0,68.0,Mondb1.jpg,1.9909999999999999,27.0,-0.33954081662370017,-0.9058310975365064
147,V1,d09172021,S5lJ6,rating,27.0,6.0,Gusc1n.jpg,4.332,53.0,-0.050204382539511885,0.4160552562118096
148,V1,d09172021,S5lJ6,rating,28.0,49.0,Lewc1n.jpg,3.377,28.0,-0.16823782745638494,-0.8549893147000328
149,V1,d09172021,S5lJ6,rating,29.0,21.0,Kupkc1.jpg,2.594,31.0,-0.2650128927651929,-0.7024639661906117
150,V1,d09172021,S5lJ6,rating,30.0,64.0,Vincb1.jpg,2.451,40.0,-0.28268701069515395,-0.2448879206623485
151,V1,d09172021,S5lJ6,rating,31.0,26.0,Klid1n.jpg,2.7489999999999997,61.0,-0.2458556320718784,0.8227895189035991
152,V1,d09172021,S5lJ6,rating,32.0,63.0,Lewia1.jpg,2.189,37.0,-0.3150689610283694,-0.3974132691717696
153,V1,d09172021,S5lJ6,rating,33.0,47.0,Vina1n.jpg,2.8710000000000004,63.0,-0.2307770139777857,0.9244730845765464
154,V1,d09172021,S5lJ6,rating,34.0,35.0,Gusa1n.jpg,9.672,56.0,0.6097941471527417,0.5685806047212306
155,V1,d09172021,S5lJ6,rating,35.0,54.0,Rohla1.jpg,2.2880000000000003,85.0,-0.30283303323070404,2.042992306978968
156,V1,d09172021,S5lJ6,rating,36.0,42.0,Mackc1.jpg,2.03,32.0,-0.3347206026428017,-0.6516221833541379
157,V1,d09172021,S5lJ6,rating,37.0,20.0,Picb1n.jpg,1.726,25.0,-0.3722935526477539,-1.0075146632094538
158,V1,d09172021,S5lJ6,rating,38.0,41.0,Picae1.jpg,3.023,89.0,-0.2119905389753096,2.246359438324862
159,V1,d09172021,S5lJ6,rating,39.0,5.0,Pica1n.jpg,2.3,30.0,-0.3013498904673507,-0.7533057490270854
160,V1,d09172021,S5lJ6,rating,40.0,51.0,Lewic1.jpg,0.784,50.0,-0.4887202595709942,0.2635299077023885
161,V1,d09172021,S5lJ6,rating,41.0,33.0,Kline1.jpg,3.1319999999999997,55.0,-0.19851865887484973,0.517738821884757
162,V1,d09172021,S5lJ6,rating,42.0,29.0,Klinb1.jpg,2.535,60.0,-0.27230501135168034,0.7719477360671254
163,V1,d09172021,S5lJ6,rating,43.0,3.0,Klib1n.jpg,1.962,62.0,-0.3431250783018042,0.8736313017400729
164,V1,d09172021,S5lJ6,rating,44.0,46.0,Lewb1n.jpg,2.807,53.0,-0.2386871087156704,0.4160552562118096
165,V1,d09172021,S5lJ6,rating,45.0,4.0,Krasb1.jpg,1.933,32.0,-0.34670933997990816,-0.6516221833541379
166,V1,d09172021,S5lJ6,rating,46.0,15.0,Lassc1.jpg,2.239,35.0,-0.30888919951439703,-0.499096834844717
167,V1,d09172021,S5lJ6,rating,47.0,37.0,Deka1n.jpg,1.776,31.0,-0.3661137911337816,-0.7024639661906117
168,V1,d09172021,S5lJ6,rating,48.0,1.0,Monda1.jpg,2.057,79.0,-0.33138353142525656,1.7379416099601257
169,V1,d09172021,S5lJ6,rating,49.0,38.0,Krasa1.jpg,3.1289999999999996,36.0,-0.19888944456568808,-0.4482550520082432
170,V1,d09172021,S5lJ6,rating,50.0,24.0,Lewa1n.jpg,5.2,15.0,0.057076277343049216,-1.5159324915741907
171,V1,d09172021,S5lJ6,rating,51.0,2.0,Dekb1n.jpg,2.133,17.0,-0.3219902939240185,-1.4142489259012434
172,V1,d09172021,S5lJ6,rating,52.0,43.0,Clifb1.jpg,3.4410000000000003,35.0,-0.16032773271850026,-0.499096834844717
173,V1,d09172021,S5lJ6,rating,53.0,0.0,Monb1n.jpg,2.49,21.0,-0.27786679671425546,-1.2108817945553487
174,V1,d09172021,S5lJ6,rating,54.0,65.0,Roha1n.jpg,34.371,81.0,3.662472739824834,1.8396251756330733
175,V1,d09172021,S5lJ6,rating,55.0,58.0,Klinc1.jpg,3.08,63.0,-0.20494561084938104,0.9244730845765464
176,V1,d09172021,S5lJ6,rating,56.0,56.0,Clib1n.jpg,2.345,26.0,-0.2957881051047755,-0.9566728803729802
177,V1,d09172021,S5lJ6,rating,57.0,66.0,Vinca1.jpg,46.428999999999995,44.0,5.1527840265344205,-0.041520789316453685
178,V1,d09172021,S5lJ6,rating,58.0,18.0,Krab1n.jpg,1.546,44.0,-0.3945406940980546,-0.041520789316453685
179,V1,d09172021,S5lJ6,rating,59.0,69.0,Picad1.jpg,6.632000000000001,80.0,0.234064647103219,1.7887833927965993
180,V1,d09172021,IDAjV,rating,0.0,21.0,Kupkc1.jpg,3.136,46.0,-0.2579650322680121,-0.7740307136461029
181,V1,d09172021,IDAjV,rating,1.0,65.0,Roha1n.jpg,2.895,57.0,-0.3887290498868672,0.3152235955360457
182,V1,d09172021,IDAjV,rating,2.0,18.0,Krab1n.jpg,2.072,35.0,-0.8352800312159862,-1.863285022828252
183,V1,d09172021,IDAjV,rating,3.0,17.0,Picaa1.jpg,2.372,65.0,-0.6725032457983244,1.1074085476685174
184,V1,d09172021,IDAjV,rating,4.0,34.0,Lasb1n.jpg,4.853,46.0,0.6736607696057387,-0.7740307136461029
185,V1,d09172021,IDAjV,rating,5.0,32.0,Kupkb1.jpg,2.4819999999999998,68.0,-0.6128184244785149,1.4044779047181943
186,V1,d09172021,IDAjV,rating,6.0,43.0,Clifb1.jpg,3.5410000000000004,37.0,-0.03821637195416883,-1.6652387847951335
187,V1,d09172021,IDAjV,rating,7.0,56.0,Clib1n.jpg,2.427,51.0,-0.6426608351384197,-0.2789151185633081
188,V1,d09172021,IDAjV,rating,8.0,2.0,Dekb1n.jpg,2.727,63.0,-0.4798840497207579,0.9093623096353995
189,V1,d09172021,IDAjV,rating,9.0,27.0,Gustc1.jpg,11.450999999999999,45.0,4.253664870224848,-0.8730538326626619
190,V1,d09172021,IDAjV,rating,10.0,10.0,Vinb1n.jpg,3.068,57.0,-0.2948611036293489,0.3152235955360457
191,V1,d09172021,IDAjV,rating,11.0,48.0,Maca1n.jpg,3.722,57.0,0.059992288581153824,0.3152235955360457
192,V1,d09172021,IDAjV,rating,12.0,20.0,Picb1n.jpg,2.82,78.0,-0.4294232462412828,2.394709094883784
193,V1,d09172021,IDAjV,rating,13.0,63.0,Lewia1.jpg,2.615,65.0,-0.5406540496100182,1.1074085476685174
194,V1,d09172021,IDAjV,rating,14.0,35.0,Gusa1n.jpg,5.395,55.0,0.9677441619269809,0.11717735750292778
195,V1,d09172021,IDAjV,rating,15.0,54.0,Rohla1.jpg,4.187,60.0,0.3122963059785298,0.6122929525857226
196,V1,d09172021,IDAjV,rating,16.0,8.0,Picd1n.jpg,4.148,60.0,0.29113532387423346,0.6122929525857226
197,V1,d09172021,IDAjV,rating,17.0,6.0,Gusc1n.jpg,3.41,40.0,-0.10929556825321438,-1.3681694277454568
198,V1,d09172021,IDAjV,rating,18.0,44.0,Mackb1.jpg,2.4859999999999998,53.0,-0.6106480673396127,-0.08086888053019015
199,V1,d09172021,IDAjV,rating,19.0,25.0,Dekob1.jpg,2.513,55.0,-0.5959981566520234,0.11717735750292778
200,V1,d09172021,IDAjV,rating,20.0,47.0,Vina1n.jpg,3.5189999999999997,52.0,-0.05015333621813059,-0.17989199954674912
201,V1,d09172021,IDAjV,rating,21.0,19.0,Picc1n.jpg,3.255,43.0,-0.1933969073856731,-1.0711000706957798
202,V1,d09172021,IDAjV,rating,22.0,45.0,Lasc1n.jpg,3.312,36.0,-0.1624693181563174,-1.764261903811693
203,V1,d09172021,IDAjV,rating,23.0,11.0,Clifa1.jpg,3.7769999999999997,61.0,0.08983469924105858,0.7113160716022816
204,V1,d09172021,IDAjV,rating,24.0,33.0,Kline1.jpg,4.572,53.0,0.5211931805978623,-0.08086888053019015
205,V1,d09172021,IDAjV,rating,25.0,55.0,Clia1n.jpg,6.3870000000000005,53.0,1.5059927323747158,-0.08086888053019015
206,V1,d09172021,IDAjV,rating,26.0,61.0,Grigb1.jpg,9.378,40.0,3.1288772829888045,-1.3681694277454568
207,V1,d09172021,IDAjV,rating,27.0,9.0,Klind1.jpg,8.695,61.0,2.7582888015212608,0.7113160716022816
208,V1,d09172021,IDAjV,rating,28.0,68.0,Mondb1.jpg,8.238999999999999,65.0,2.510868087686416,1.1074085476685174
209,V1,d09172021,IDAjV,rating,29.0,38.0,Krasa1.jpg,2.585,39.0,-0.5569317281517845,-1.4671925467620155
210,V1,d09172021,IDAjV,rating,30.0,13.0,Kupka1.jpg,3.592,64.0,-0.010544318433166238,1.0083854286519585
211,V1,d09172021,IDAjV,rating,31.0,64.0,Vincb1.jpg,2.875,57.0,-0.39958083558137797,0.3152235955360457
212,V1,d09172021,IDAjV,rating,32.0,58.0,Klinc1.jpg,4.356,41.0,0.4039938950971457,-1.2691463087288977
213,V1,d09172021,IDAjV,rating,33.0,62.0,Mona1n.jpg,2.888,59.0,-0.3925271748799461,0.5132698335691637
214,V1,d09172021,IDAjV,rating,34.0,28.0,Pice1n.jpg,2.562,61.0,-0.5694112817004721,0.7113160716022816
215,V1,d09172021,IDAjV,rating,35.0,26.0,Klid1n.jpg,2.339,63.0,-0.6904086921942671,0.9093623096353995
216,V1,d09172021,IDAjV,rating,36.0,29.0,Klinb1.jpg,3.1630000000000003,56.0,-0.2433151215804228,0.2162004765194868
217,V1,d09172021,IDAjV,rating,37.0,14.0,Grib1n.jpg,2.3569999999999998,39.0,-0.6806420850692073,-1.4671925467620155
218,V1,d09172021,IDAjV,rating,38.0,5.0,Pica1n.jpg,1.984,51.0,-0.8830278882718336,-0.2789151185633081
219,V1,d09172021,IDAjV,rating,39.0,51.0,Lewic1.jpg,3.352,40.0,-0.1407657467672958,-1.3681694277454568
220,V1,d09172021,IDAjV,rating,40.0,53.0,Macc1n.jpg,2.386,66.0,-0.6649069958121667,1.2064316666850765
221,V1,d09172021,IDAjV,rating,41.0,66.0,Vinca1.jpg,3.2119999999999997,53.0,-0.21672824662887116,-0.08086888053019015
222,V1,d09172021,IDAjV,rating,42.0,50.0,Klic1n.jpg,3.09,38.0,-0.28292413936538713,-1.5662156657785746
223,V1,d09172021,IDAjV,rating,43.0,39.0,Kupb1n.jpg,2.905,74.0,-0.3833031570396119,1.9986166188175485
224,V1,d09172021,IDAjV,rating,44.0,46.0,Lewb1n.jpg,3.037,46.0,-0.3116813714558407,-0.7740307136461029
225,V1,d09172021,IDAjV,rating,45.0,3.0,Klib1n.jpg,2.037,48.0,-0.8542706561813801,-0.5759844756129849
226,V1,d09172021,IDAjV,rating,46.0,69.0,Picad1.jpg,2.543,54.0,-0.5797204781102571,0.018154238486368816
227,V1,d09172021,IDAjV,rating,47.0,12.0,Klie1n.jpg,2.2680000000000002,56.0,-0.7289325314097805,0.2162004765194868
228,V1,d09172021,IDAjV,rating,48.0,4.0,Krasb1.jpg,2.101,39.0,-0.8195449419589456,-1.4671925467620155
229,V1,d09172021,IDAjV,rating,49.0,36.0,Gustb1.jpg,2.302,45.0,-0.7104844957291121,-0.8730538326626619
230,V1,d09172021,IDAjV,rating,50.0,67.0,Picab1.jpg,1.8869999999999998,58.0,-0.9356590488902108,0.4142467145526047
231,V1,d09172021,IDAjV,rating,51.0,37.0,Deka1n.jpg,2.358,64.0,-0.6800994957844818,1.0083854286519585
232,V1,d09172021,IDAjV,rating,52.0,7.0,Macb1n.jpg,3.063,60.0,-0.2975740500529765,0.6122929525857226
233,V1,d09172021,IDAjV,rating,53.0,52.0,Dekoa1.jpg,3.687,60.0,0.04100166361575987,0.6122929525857226
234,V1,d09172021,IDAjV,rating,54.0,57.0,Lassa1.jpg,4.396,54.0,0.42569746648616735,0.018154238486368816
235,V1,d09172021,IDAjV,rating,55.0,59.0,Macka1.jpg,4.281000000000001,67.0,0.3632996987427302,1.3054547857016354
236,V1,d09172021,IDAjV,rating,56.0,16.0,Vincc1.jpg,2.9530000000000003,48.0,-0.3572588713727861,-0.5759844756129849
237,V1,d09172021,IDAjV,rating,57.0,42.0,Mackc1.jpg,3.201,66.0,-0.22269672876085211,1.2064316666850765
238,V1,d09172021,IDAjV,rating,58.0,60.0,Kupc1n.jpg,5.26,58.0,0.8944946084890333,0.4142467145526047
239,V1,d09172021,IDAjV,rating,59.0,24.0,Lewa1n.jpg,4.212,48.0,0.325861038096668,-0.5759844756129849
240,V1,d09172021,59tg8,rating,0.0,44.0,Mackb1.jpg,6.244,23.0,1.7936634604252601,0.01967587633689824
241,V1,d09172021,59tg8,rating,1.0,64.0,Vincb1.jpg,4.669,12.0,0.6909225863698241,-0.33129921507804305
242,V1,d09172021,59tg8,rating,2.0,49.0,Lewc1n.jpg,2.9410000000000003,0.0,-0.5189416868795682,-0.7141811329852518
243,V1,d09172021,59tg8,rating,3.0,31.0,Picac1.jpg,3.4019999999999997,31.0,-0.1961711834258817,0.2749304882750373
244,V1,d09172021,59tg8,rating,4.0,11.0,Clifa1.jpg,3.772,64.0,0.06288540286015694,1.3278557625198613
245,V1,d09172021,59tg8,rating,5.0,40.0,Vinc1n.jpg,4.169,20.0,0.34084611841571744,-0.07604460313990394
246,V1,d09172021,59tg8,rating,6.0,38.0,Krasa1.jpg,9.507,0.0,4.078262490293758,-0.7141811329852518
247,V1,d09172021,59tg8,rating,7.0,30.0,Kraa1n.jpg,3.071,0.0,-0.42792180521150025,-0.7141811329852518
248,V1,d09172021,59tg8,rating,8.0,3.0,Klib1n.jpg,4.292,11.0,0.4269649295324278,-0.3632060415703105
249,V1,d09172021,59tg8,rating,9.0,59.0,Macka1.jpg,3.63,53.0,-0.03653631403880926,0.97688067110492
250,V1,d09172021,59tg8,rating,10.0,22.0,Klina1.jpg,3.2760000000000002,31.0,-0.2843904533503168,0.2749304882750373
251,V1,d09172021,59tg8,rating,11.0,0.0,Monb1n.jpg,2.7119999999999997,0.0,-0.6792767092025488,-0.7141811329852518
252,V1,d09172021,59tg8,rating,12.0,25.0,Dekob1.jpg,4.14,0.0,0.3205416832743793,-0.7141811329852518
253,V1,d09172021,59tg8,rating,13.0,17.0,Picaa1.jpg,5.0760000000000005,58.0,0.9758848312844668,1.1364148035662571
254,V1,d09172021,59tg8,rating,14.0,56.0,Clib1n.jpg,3.5380000000000003,11.0,-0.10095038414236493,-0.3632060415703105
255,V1,d09172021,59tg8,rating,15.0,33.0,Kline1.jpg,5.039,21.0,0.9499791726558628,-0.04413777664763655
256,V1,d09172021,59tg8,rating,16.0,58.0,Klinc1.jpg,3.7969999999999997,68.0,0.08038922625786253,1.4554830684889308
257,V1,d09172021,59tg8,rating,17.0,9.0,Klind1.jpg,3.428,100.0,-0.1779672070922683,2.476501516241488
258,V1,d09172021,59tg8,rating,18.0,54.0,Rohla1.jpg,3.908,80.0,0.15810620214367402,1.8383649863961395
259,V1,d09172021,59tg8,rating,19.0,27.0,Gustc1.jpg,3.654,0.0,-0.01973264357701213,-0.7141811329852518
260,V1,d09172021,59tg8,rating,20.0,57.0,Lassa1.jpg,3.3789999999999996,0.0,-0.2122747009517707,-0.7141811329852518
261,V1,d09172021,59tg8,rating,21.0,20.0,Picb1n.jpg,2.55,100.0,-0.7927014848196795,2.476501516241488
262,V1,d09172021,59tg8,rating,22.0,19.0,Picc1n.jpg,2.5980000000000003,0.0,-0.7590941438960853,-0.7141811329852518
263,V1,d09172021,59tg8,rating,23.0,26.0,Klid1n.jpg,4.197,86.0,0.36045040062114775,2.0298059453497443
264,V1,d09172021,59tg8,rating,24.0,2.0,Dekb1n.jpg,4.49,16.0,0.5655952108422543,-0.2036719091089735
265,V1,d09172021,59tg8,rating,25.0,45.0,Lasc1n.jpg,2.957,0.0,-0.5077392399050368,-0.7141811329852518
266,V1,d09172021,59tg8,rating,26.0,23.0,Rohlb1.jpg,2.553,100.0,-0.7906010260119548,2.476501516241488
267,V1,d09172021,59tg8,rating,27.0,68.0,Mondb1.jpg,2.5660000000000003,0.0,-0.7814990378451481,-0.7141811329852518
268,V1,d09172021,59tg8,rating,28.0,13.0,Kupka1.jpg,2.449,0.0,-0.8634169313464091,-0.7141811329852518
269,V1,d09172021,59tg8,rating,29.0,28.0,Pice1n.jpg,3.502,84.0,-0.12615588983506065,1.965992292365209
270,V1,d09172021,59tg8,rating,30.0,46.0,Lewb1n.jpg,4.468999999999999,55.0,0.5508919991881819,1.0406943240894548
271,V1,d09172021,59tg8,rating,31.0,29.0,Klinb1.jpg,2.2840000000000003,0.0,-0.9789421657712642,-0.7141811329852518
272,V1,d09172021,59tg8,rating,32.0,14.0,Grib1n.jpg,9.732000000000001,0.0,4.2357969008731065,-0.7141811329852518
273,V1,d09172021,59tg8,rating,33.0,7.0,Macb1n.jpg,3.1310000000000002,58.0,-0.3859126290570077,1.1364148035662571
274,V1,d09172021,59tg8,rating,34.0,18.0,Krab1n.jpg,2.597,0.0,-0.7597942968319934,-0.7141811329852518
275,V1,d09172021,59tg8,rating,35.0,12.0,Klie1n.jpg,3.236,0.0,-0.312396570786645,-0.7141811329852518
276,V1,d09172021,59tg8,rating,36.0,48.0,Maca1n.jpg,5.119,0.0,1.00599140752852,-0.7141811329852518
277,V1,d09172021,59tg8,rating,37.0,47.0,Vina1n.jpg,2.813,0.0,-0.6085612626758192,-0.7141811329852518
278,V1,d09172021,59tg8,rating,38.0,4.0,Krasb1.jpg,2.397,0.0,-0.8998248840136361,-0.7141811329852518
279,V1,d09172021,59tg8,rating,39.0,37.0,Deka1n.jpg,2.088,0.0,-1.1161721412092738,-0.7141811329852518
280,V1,d09172021,59tg8,rating,40.0,5.0,Pica1n.jpg,2.5580000000000003,53.0,-0.7871002613324138,0.97688067110492
281,V1,d09172021,59tg8,rating,41.0,55.0,Clia1n.jpg,5.207999999999999,20.0,1.0683050188243512,-0.07604460313990394
282,V1,d09172021,59tg8,rating,42.0,24.0,Lewa1n.jpg,2.517,0.0,-0.8158065317046506,-0.7141811329852518
283,V1,d09172021,59tg8,rating,43.0,34.0,Lasb1n.jpg,2.7889999999999997,0.0,-0.6253649331376163,-0.7141811329852518
284,V1,d09172021,59tg8,rating,44.0,65.0,Roha1n.jpg,2.909,59.0,-0.5413465808286311,1.1683216300585244
285,V1,d09172021,59tg8,rating,45.0,51.0,Lewic1.jpg,3.307,0.0,-0.2626857123371621,-0.7141811329852518
286,V1,d09172021,59tg8,rating,46.0,69.0,Picad1.jpg,2.742,0.0,-0.6582721211253025,-0.7141811329852518
287,V1,d09172021,59tg8,rating,47.0,39.0,Kupb1n.jpg,4.2219999999999995,0.0,0.3779542240188533,-0.7141811329852518
288,V1,d09172021,59tg8,rating,48.0,50.0,Klic1n.jpg,2.571,0.0,-0.7779982731656068,-0.7141811329852518
289,V1,d09172021,59tg8,rating,49.0,62.0,Mona1n.jpg,4.3260000000000005,14.0,0.4507701293533069,-0.2674855620935083
290,V1,d09172021,59tg8,rating,50.0,10.0,Vinb1n.jpg,3.1710000000000003,0.0,-0.3579065116206792,-0.7141811329852518
291,V1,d09172021,59tg8,rating,51.0,16.0,Vincc1.jpg,2.93,0.0,-0.5266433691745583,-0.7141811329852518
292,V1,d09172021,59tg8,rating,52.0,43.0,Clifb1.jpg,2.458,0.0,-0.8571155549232349,-0.7141811329852518
293,V1,d09172021,59tg8,rating,53.0,21.0,Kupkc1.jpg,5.396,16.0,1.1999337707750952,-0.2036719091089735
294,V1,d09172021,59tg8,rating,54.0,60.0,Kupc1n.jpg,3.906,16.0,0.15670589627185774,-0.2036719091089735
295,V1,d09172021,59tg8,rating,55.0,53.0,Macc1n.jpg,3.575,18.0,-0.07504472551376079,-0.13985825612443872
296,V1,d09172021,59tg8,rating,56.0,1.0,Monda1.jpg,3.7560000000000002,65.0,0.05168295588562552,1.3597625890121288
297,V1,d09172021,59tg8,rating,57.0,63.0,Lewia1.jpg,3.484,0.0,-0.13875864268140833,-0.7141811329852518
298,V1,d09172021,59tg8,rating,58.0,67.0,Picab1.jpg,2.6719999999999997,0.0,-0.7072828266388773,-0.7141811329852518
299,V1,d09172021,59tg8,rating,59.0,42.0,Mackc1.jpg,3.062,0.0,-0.4342231816346744,-0.7141811329852518
300,V1,d09172021,VIK7A,rating,0.0,5.0,Pica1n.jpg,3.014,24.0,1.73511943371943,-1.4416169554905078
301,V1,d09172021,VIK7A,rating,1.0,2.0,Dekb1n.jpg,2.0269999999999997,44.0,0.02537762662006588,-0.5424795612136839
302,V1,d09172021,VIK7A,rating,2.0,59.0,Macka1.jpg,1.7990000000000002,63.0,-0.369577927603496,0.3117009633492988
303,V1,d09172021,VIK7A,rating,3.0,31.0,Picac1.jpg,2.092,62.0,0.1379746047978355,0.2667440936354576
304,V1,d09172021,VIK7A,rating,4.0,15.0,Lassc1.jpg,1.725,28.0,-0.4977652566058796,-1.261789476635143
305,V1,d09172021,VIK7A,rating,5.0,68.0,Mondb1.jpg,1.636,49.0,-0.6519365036492877,-0.3176952126444779
306,V1,d09172021,VIK7A,rating,6.0,51.0,Lewic1.jpg,3.1060000000000003,59.0,1.8944874643710428,0.13187348449393402
307,V1,d09172021,VIK7A,rating,7.0,43.0,Clifb1.jpg,1.6340000000000001,38.0,-0.6554010260547576,-0.812220779496731
308,V1,d09172021,VIK7A,rating,8.0,56.0,Clib1n.jpg,1.5330000000000001,50.0,-0.8303594075309844,-0.2727383429306367
309,V1,d09172021,VIK7A,rating,9.0,54.0,Rohla1.jpg,2.4930000000000003,85.0,0.8326113470945375,1.3007520970538051
310,V1,d09172021,VIK7A,rating,10.0,20.0,Picb1n.jpg,1.735,63.0,-0.4804426445785304,0.3117009633492988
311,V1,d09172021,VIK7A,rating,11.0,37.0,Deka1n.jpg,2.225,23.0,0.3683653447615797,-1.4865738252043492
312,V1,d09172021,VIK7A,rating,12.0,11.0,Clifa1.jpg,2.181,37.0,0.2921458518412432,-0.8571776492105723
313,V1,d09172021,VIK7A,rating,13.0,49.0,Lewc1n.jpg,1.9280000000000002,64.0,-0.1461162324506914,0.35665783306314
314,V1,d09172021,VIK7A,rating,14.0,8.0,Picd1n.jpg,2.037,100.0,0.0427002386474147,1.975105142761423
315,V1,d09172021,VIK7A,rating,15.0,47.0,Vina1n.jpg,2.2,73.0,0.32505881469320685,0.7612696604877107
316,V1,d09172021,VIK7A,rating,16.0,57.0,Lassa1.jpg,2.2230000000000003,64.0,0.3649008223561095,0.35665783306314
317,V1,d09172021,VIK7A,rating,17.0,60.0,Kupc1n.jpg,1.5490000000000002,50.0,-0.8026432282872256,-0.2727383429306367
318,V1,d09172021,VIK7A,rating,18.0,13.0,Kupka1.jpg,1.517,50.0,-0.8580755867747429,-0.2727383429306367
319,V1,d09172021,VIK7A,rating,19.0,46.0,Lewb1n.jpg,3.405,69.0,2.4124335639887837,0.5814421816323461
320,V1,d09172021,VIK7A,rating,20.0,52.0,Dekoa1.jpg,1.5730000000000002,35.0,-0.7610689594215875,-0.9470913886382546
321,V1,d09172021,VIK7A,rating,21.0,21.0,Kupkc1.jpg,1.607,63.0,-0.7021720785286002,0.3117009633492988
322,V1,d09172021,VIK7A,rating,22.0,22.0,Klina1.jpg,1.787,33.0,-0.390365062036315,-1.037005128065937
323,V1,d09172021,VIK7A,rating,23.0,61.0,Grigb1.jpg,1.806,75.0,-0.3574520991843513,0.851183399915393
324,V1,d09172021,VIK7A,rating,24.0,64.0,Vincb1.jpg,2.512,46.0,0.8655243099465012,-0.4525658217860015
325,V1,d09172021,VIK7A,rating,25.0,36.0,Gustb1.jpg,2.029,50.0,0.028842149025535332,-0.2727383429306367
326,V1,d09172021,VIK7A,rating,26.0,30.0,Kraa1n.jpg,1.788,35.0,-0.3886328008335799,-0.9470913886382546
327,V1,d09172021,VIK7A,rating,27.0,65.0,Roha1n.jpg,1.7409999999999999,100.0,-0.4700490773621209,1.975105142761423
328,V1,d09172021,VIK7A,rating,28.0,39.0,Kupb1n.jpg,1.7069999999999999,36.0,-0.5289459582551082,-0.9021345189244134
329,V1,d09172021,VIK7A,rating,29.0,6.0,Gusc1n.jpg,2.136,100.0,0.214194097718172,1.975105142761423
330,V1,d09172021,VIK7A,rating,30.0,41.0,Picae1.jpg,1.5930000000000002,100.0,-0.7264237353668891,1.975105142761423
331,V1,d09172021,VIK7A,rating,31.0,19.0,Picc1n.jpg,1.381,33.0,-1.0936631103466918,-1.037005128065937
332,V1,d09172021,VIK7A,rating,32.0,25.0,Dekob1.jpg,1.5930000000000002,34.0,-0.7264237353668891,-0.9920482583520958
333,V1,d09172021,VIK7A,rating,33.0,12.0,Klie1n.jpg,2.4530000000000003,78.0,0.7633208989851408,0.9860540090569166
334,V1,d09172021,VIK7A,rating,34.0,40.0,Vinc1n.jpg,2.377,41.0,0.6316690475772868,-0.6773501703552075
335,V1,d09172021,VIK7A,rating,35.0,45.0,Lasc1n.jpg,2.785,16.0,1.3384316182931342,-1.8012719132012374
336,V1,d09172021,VIK7A,rating,36.0,58.0,Klinc1.jpg,1.6480000000000001,64.0,-0.6311493692164687,0.35665783306314
337,V1,d09172021,VIK7A,rating,37.0,16.0,Vincc1.jpg,2.025,59.0,0.021913104214595653,0.13187348449393402
338,V1,d09172021,VIK7A,rating,38.0,50.0,Klic1n.jpg,1.8130000000000002,63.0,-0.34532627076520706,0.3117009633492988
339,V1,d09172021,VIK7A,rating,39.0,42.0,Mackc1.jpg,1.83,24.0,-0.3158778303187132,-1.4416169554905078
340,V1,d09172021,VIK7A,rating,40.0,29.0,Klinb1.jpg,1.466,64.0,-0.9464209081142236,0.35665783306314
341,V1,d09172021,VIK7A,rating,41.0,55.0,Clia1n.jpg,1.629,50.0,-0.664062332068432,-0.2727383429306367
342,V1,d09172021,VIK7A,rating,42.0,7.0,Macb1n.jpg,1.3730000000000002,50.0,-1.1075211999685712,-0.2727383429306367
343,V1,d09172021,VIK7A,rating,43.0,18.0,Krab1n.jpg,1.557,25.0,-0.7887851386653463,-1.3966600857766664
344,V1,d09172021,VIK7A,rating,44.0,14.0,Grib1n.jpg,1.56,68.0,-0.7835883550571413,0.5364853119185048
345,V1,d09172021,VIK7A,rating,45.0,35.0,Gusa1n.jpg,2.927,80.0,1.5844127090814926,1.075967748484599
346,V1,d09172021,VIK7A,rating,46.0,44.0,Mackb1.jpg,1.571,30.0,-0.7645334818270574,-1.1718757372074606
347,V1,d09172021,VIK7A,rating,47.0,0.0,Monb1n.jpg,2.363,63.0,0.6074173907389983,0.3117009633492988
348,V1,d09172021,VIK7A,rating,48.0,10.0,Vinb1n.jpg,1.5119999999999998,23.0,-0.8667368927884175,-1.4865738252043492
349,V1,d09172021,VIK7A,rating,49.0,66.0,Vinca1.jpg,2.009,50.0,-0.005803075029163069,-0.2727383429306367
350,V1,d09172021,VIK7A,rating,50.0,53.0,Macc1n.jpg,1.754,30.0,-0.4475296817265672,-1.1718757372074606
351,V1,d09172021,VIK7A,rating,51.0,32.0,Kupkb1.jpg,1.258,50.0,-1.306731238283087,-0.2727383429306367
352,V1,d09172021,VIK7A,rating,52.0,48.0,Maca1n.jpg,4.486000000000001,65.0,4.28500792414523,0.4016147027769812
353,V1,d09172021,VIK7A,rating,53.0,26.0,Klid1n.jpg,1.59,76.0,-0.7316205189750937,0.8961402696292343
354,V1,d09172021,VIK7A,rating,54.0,28.0,Pice1n.jpg,3.068,100.0,1.828661538667116,1.975105142761423
355,V1,d09172021,VIK7A,rating,55.0,9.0,Klind1.jpg,2.616,75.0,1.0456794750309328,0.851183399915393
356,V1,d09172021,VIK7A,rating,56.0,69.0,Picad1.jpg,1.8969999999999998,78.0,-0.19981632973547372,0.9860540090569166
357,V1,d09172021,VIK7A,rating,57.0,62.0,Mona1n.jpg,2.0540000000000003,94.0,0.07214867909390815,1.7053639244783758
358,V1,d09172021,VIK7A,rating,58.0,34.0,Lasb1n.jpg,1.975,63.0,-0.06469995592214997,0.3117009633492988
359,V1,d09172021,VIK7A,rating,59.0,23.0,Rohlb1.jpg,1.8330000000000002,50.0,-0.3106810467105086,-0.2727383429306367
360,V1,d09142021,eGaxL,rating,0.0,51.0,Lewic1.jpg,5.005,19.0,0.9331584336218312,-0.2219737603979402
361,V1,d09142021,eGaxL,rating,1.0,49.0,Lewc1n.jpg,4.496,26.0,0.5550667777304786,0.03067930021760155
362,V1,d09142021,eGaxL,rating,2.0,68.0,Mondb1.jpg,3.0269999999999997,0.0,-0.5361250543017371,-0.9077463534972678
363,V1,d09142021,eGaxL,rating,3.0,64.0,Vincb1.jpg,4.148,16.0,0.2965679638794155,-0.33025364351888664
364,V1,d09142021,eGaxL,rating,4.0,52.0,Dekoa1.jpg,4.4430000000000005,12.0,0.5156977055060346,-0.474626821013482
365,V1,d09142021,eGaxL,rating,5.0,3.0,Klib1n.jpg,2.517,22.0,-0.9149595228765702,-0.11369387727699372
366,V1,d09142021,eGaxL,rating,6.0,67.0,Picab1.jpg,2.763,18.0,-0.7322276027404743,-0.25806705477158903
367,V1,d09142021,eGaxL,rating,7.0,66.0,Vinca1.jpg,4.06,23.0,0.2312004477331697,-0.07760058290334491
368,V1,d09142021,eGaxL,rating,8.0,40.0,Vinc1n.jpg,3.181,1.0,-0.421731901045807,-0.871653059123619
369,V1,d09142021,eGaxL,rating,9.0,14.0,Grib1n.jpg,6.099,45.0,1.7457955093490225,0.7164518933169292
370,V1,d09142021,eGaxL,rating,10.0,54.0,Rohla1.jpg,3.227,80.0,-0.3875625176057241,1.9797171963946376
371,V1,d09142021,eGaxL,rating,11.0,47.0,Vina1n.jpg,2.986,9.0,-0.5665803743244195,-0.5829067041344284
372,V1,d09142021,eGaxL,rating,12.0,58.0,Klinc1.jpg,3.4339999999999997,24.0,-0.2338002921253505,-0.041507288529696096
373,V1,d09142021,eGaxL,rating,13.0,23.0,Rohlb1.jpg,4.149,94.0,0.2973107765628958,2.4850233176257213
374,V1,d09142021,eGaxL,rating,14.0,6.0,Gusc1n.jpg,5.2010000000000005,30.0,1.0787497195839235,0.17505247771219684
375,V1,d09142021,eGaxL,rating,15.0,0.0,Monb1n.jpg,3.696,25.0,-0.03918336905357348,-0.0054139941560472716
376,V1,d09142021,eGaxL,rating,16.0,46.0,Lewb1n.jpg,5.192,10.0,1.0720644054326036,-0.5468134097607796
377,V1,d09142021,eGaxL,rating,17.0,38.0,Krasa1.jpg,3.353,5.0,-0.2939681194872357,-0.7272798816290237
378,V1,d09142021,eGaxL,rating,18.0,57.0,Lassa1.jpg,3.053,6.0,-0.5168119245312554,-0.6911865872553749
379,V1,d09142021,eGaxL,rating,19.0,56.0,Clib1n.jpg,2.4019999999999997,11.0,-1.0003829814767775,-0.5107201153871308
380,V1,d09142021,eGaxL,rating,20.0,59.0,Macka1.jpg,0.355,50.0,-2.5209205445604703,0.8969183651851732
381,V1,d09142021,eGaxL,rating,21.0,63.0,Lewia1.jpg,2.855,15.0,-0.6638888358603082,-0.3663469378925355
382,V1,d09142021,eGaxL,rating,22.0,44.0,Mackb1.jpg,3.298,18.0,-0.3348228170786394,-0.25806705477158903
383,V1,d09142021,eGaxL,rating,23.0,43.0,Clifb1.jpg,6.69,78.0,2.1847978052857413,1.90753060764734
384,V1,d09142021,eGaxL,rating,24.0,22.0,Klina1.jpg,3.1710000000000003,9.0,-0.4291600278806078,-0.5829067041344284
385,V1,d09142021,eGaxL,rating,25.0,4.0,Krasb1.jpg,2.877,17.0,-0.6475469568237471,-0.29416034914523786
386,V1,d09142021,eGaxL,rating,26.0,37.0,Deka1n.jpg,2.702,12.0,-0.7775391764327582,-0.474626821013482
387,V1,d09142021,eGaxL,rating,27.0,28.0,Pice1n.jpg,4.141,46.0,0.29136827509505525,0.752545187690578
388,V1,d09142021,eGaxL,rating,28.0,41.0,Picae1.jpg,3.3110000000000004,75.0,-0.3251662521933986,1.7992507245263938
389,V1,d09142021,eGaxL,rating,29.0,42.0,Mackc1.jpg,3.485,5.0,-0.1959168452678674,-0.7272798816290237
390,V1,d09142021,eGaxL,rating,30.0,20.0,Picb1n.jpg,2.51,13.0,-0.9201592116609308,-0.4385335266398331
391,V1,d09142021,eGaxL,rating,31.0,16.0,Vincc1.jpg,2.897,4.0,-0.6326907031541456,-0.7633731760026725
392,V1,d09142021,eGaxL,rating,32.0,34.0,Lasb1n.jpg,2.843,8.0,-0.6728025880620689,-0.6189999985080772
393,V1,d09142021,eGaxL,rating,33.0,62.0,Mona1n.jpg,3.285,55.0,-0.34447938196388017,1.0773848370534174
394,V1,d09142021,eGaxL,rating,34.0,48.0,Maca1n.jpg,4.538,8.0,0.5862649104366412,-0.6189999985080772
395,V1,d09142021,eGaxL,rating,35.0,10.0,Vinb1n.jpg,2.52,8.0,-0.91273108482613,-0.6189999985080772
396,V1,d09142021,eGaxL,rating,36.0,60.0,Kupc1n.jpg,3.19,6.0,-0.4150465868944865,-0.6911865872553749
397,V1,d09142021,eGaxL,rating,37.0,61.0,Grigb1.jpg,4.367,65.0,0.4592439415615499,1.4383177807899057
398,V1,d09142021,eGaxL,rating,38.0,19.0,Picc1n.jpg,2.707,0.0,-0.7738251130153578,-0.9077463534972678
399,V1,d09142021,eGaxL,rating,39.0,7.0,Macb1n.jpg,3.345,10.0,-0.29991062095507626,-0.5468134097607796
400,V1,d09142021,eGaxL,rating,40.0,21.0,Kupkc1.jpg,3.484,5.0,-0.19665965795134735,-0.7272798816290237
401,V1,d09142021,eGaxL,rating,41.0,27.0,Gustc1.jpg,5.643,98.0,1.4070729256821126,2.6293964951203166
402,V1,d09142021,eGaxL,rating,42.0,69.0,Picad1.jpg,3.154,63.0,-0.4417878434997689,1.366131192042608
403,V1,d09142021,eGaxL,rating,43.0,24.0,Lewa1n.jpg,4.141,17.0,0.29136827509505525,-0.29416034914523786
404,V1,d09142021,eGaxL,rating,44.0,33.0,Kline1.jpg,3.208,4.0,-0.4016759585918451,-0.7633731760026725
405,V1,d09142021,eGaxL,rating,45.0,39.0,Kupb1n.jpg,3.216,3.0,-0.3957334571240046,-0.7994664703763213
406,V1,d09142021,eGaxL,rating,46.0,32.0,Kupkb1.jpg,3.287,6.0,-0.3429937565969202,-0.6911865872553749
407,V1,d09142021,eGaxL,rating,47.0,29.0,Klinb1.jpg,3.7889999999999997,0.0,0.02989821051007253,-0.9077463534972678
408,V1,d09142021,eGaxL,rating,48.0,65.0,Roha1n.jpg,4.329,38.0,0.4310170595893073,0.4637988327013874
409,V1,d09142021,eGaxL,rating,49.0,35.0,Gusa1n.jpg,3.925,2.0,0.1309207354633611,-0.8355597647499702
410,V1,d09142021,eGaxL,rating,50.0,53.0,Macc1n.jpg,2.623,3.0,-0.8362213784276831,-0.7994664703763213
411,V1,d09142021,eGaxL,rating,51.0,18.0,Krab1n.jpg,2.7030000000000003,9.0,-0.7767963637492782,-0.5829067041344284
412,V1,d09142021,eGaxL,rating,52.0,45.0,Lasc1n.jpg,3.818,3.0,0.05143977833099436,-0.7994664703763213
413,V1,d09142021,eGaxL,rating,53.0,1.0,Monda1.jpg,10.245,74.0,4.825496895057372,1.7631574301527448
414,V1,d09142021,eGaxL,rating,54.0,30.0,Kraa1n.jpg,3.804,2.0,0.04104040076227327,-0.8355597647499702
415,V1,d09142021,eGaxL,rating,55.0,9.0,Klind1.jpg,5.541,80.0,1.3313060319671464,1.9797171963946376
416,V1,d09142021,eGaxL,rating,56.0,8.0,Picd1n.jpg,4.454,88.0,0.5238686450243154,2.2684635513838285
417,V1,d09142021,eGaxL,rating,57.0,13.0,Kupka1.jpg,3.397,13.0,-0.26128436141411315,-0.4385335266398331
418,V1,d09142021,eGaxL,rating,58.0,55.0,Clia1n.jpg,5.297999999999999,9.0,1.1508025498814904,-0.5829067041344284
419,V1,d09142021,eGaxL,rating,59.0,5.0,Pica1n.jpg,3.347,14.0,-0.29842499558811625,-0.4024402322661843
420,V1,d09172021,NtP4V,rating,0.0,40.0,Vinc1n.jpg,3.517,36.0,0.015142583922925047,-0.7800561250471203
421,V1,d09172021,NtP4V,rating,1.0,22.0,Klina1.jpg,2.653,55.0,-0.3015139511978718,0.03428818132075241
422,V1,d09172021,NtP4V,rating,2.0,25.0,Dekob1.jpg,2.9139999999999997,72.0,-0.2058572895467977,0.7629120343867438
423,V1,d09172021,NtP4V,rating,3.0,3.0,Klib1n.jpg,2.479,92.0,-0.3652850589652545,1.6201165674055567
424,V1,d09172021,NtP4V,rating,4.0,35.0,Gusa1n.jpg,3.695,18.0,0.08037969416771883,-1.5515402047640523
425,V1,d09172021,NtP4V,rating,5.0,16.0,Vincc1.jpg,2.56,58.0,-0.3355985087976798,0.16286886127357442
426,V1,d09172021,NtP4V,rating,6.0,29.0,Klinb1.jpg,3.114,41.0,-0.13255716567624296,-0.5657549917924171
427,V1,d09172021,NtP4V,rating,7.0,0.0,Monb1n.jpg,3.513,54.0,0.013676581445513949,-0.008572045330188256
428,V1,d09172021,NtP4V,rating,8.0,23.0,Rohlb1.jpg,2.997,96.0,-0.17543773814051752,1.79155747400932
429,V1,d09172021,NtP4V,rating,9.0,43.0,Clifb1.jpg,3.325,65.0,-0.05522553499280749,0.4628904478301591
430,V1,d09172021,NtP4V,rating,10.0,32.0,Kupkb1.jpg,3.267,71.0,-0.0764825709152685,0.7200518077358031
431,V1,d09172021,NtP4V,rating,11.0,59.0,Macka1.jpg,3.008,66.0,-0.17140623132763694,0.5057506744810998
432,V1,d09172021,NtP4V,rating,12.0,9.0,Klind1.jpg,3.2,94.0,-0.10103811241190426,1.7058370207074385
433,V1,d09172021,NtP4V,rating,13.0,67.0,Picab1.jpg,2.694,60.0,-0.2864874258044081,0.24858931457545574
434,V1,d09172021,NtP4V,rating,14.0,30.0,Kraa1n.jpg,2.734,33.0,-0.2718274010302971,-0.9086368049999424
435,V1,d09172021,NtP4V,rating,15.0,10.0,Vinb1n.jpg,3.255,44.0,-0.08088057834750179,-0.4371743118395949
436,V1,d09172021,NtP4V,rating,16.0,14.0,Grib1n.jpg,2.6710000000000003,68.0,-0.2949169400495219,0.5914711277829812
437,V1,d09172021,NtP4V,rating,17.0,62.0,Mona1n.jpg,2.401,78.0,-0.39387210727477096,1.020073394292388
438,V1,d09172021,NtP4V,rating,18.0,49.0,Lewc1n.jpg,2.707,34.0,-0.28172291775282204,-0.8657765783490017
439,V1,d09172021,NtP4V,rating,19.0,27.0,Gustc1.jpg,4.06,58.0,0.2141524202314813,0.16286886127357442
440,V1,d09172021,NtP4V,rating,20.0,55.0,Clia1n.jpg,3.135,23.0,-0.12486065266983473,-1.337239071509349
441,V1,d09172021,NtP4V,rating,21.0,64.0,Vincb1.jpg,3.253,61.0,-0.08161357958620725,0.29144954122639644
442,V1,d09172021,NtP4V,rating,22.0,50.0,Klic1n.jpg,2.926,77.0,-0.2014592821145644,0.9772131676414472
443,V1,d09172021,NtP4V,rating,23.0,38.0,Krasa1.jpg,3.426,69.0,-0.01820897243817731,0.6343313544339217
444,V1,d09172021,NtP4V,rating,24.0,24.0,Lewa1n.jpg,3.076,12.0,-0.1464841892116483,-1.8087015646696964
445,V1,d09172021,NtP4V,rating,25.0,63.0,Lewia1.jpg,5.47,23.0,0.7309182935188929,-1.337239071509349
446,V1,d09172021,NtP4V,rating,26.0,61.0,Grigb1.jpg,3.5669999999999997,86.0,0.03346761489056385,1.3629552074999132
447,V1,d09172021,NtP4V,rating,27.0,20.0,Picb1n.jpg,2.7119999999999997,70.0,-0.2798904146560581,0.6771915810848624
448,V1,d09172021,NtP4V,rating,28.0,31.0,Picac1.jpg,2.678,65.0,-0.2923514357140525,0.4628904478301591
449,V1,d09172021,NtP4V,rating,29.0,52.0,Dekoa1.jpg,3.29,22.0,-0.06805305667015464,-1.3800992981602898
450,V1,d09172021,NtP4V,rating,30.0,68.0,Mondb1.jpg,2.326,69.0,-0.4213596537262289,0.6343313544339217
451,V1,d09172021,NtP4V,rating,31.0,36.0,Gustb1.jpg,2.7439999999999998,25.0,-0.26816239483676924,-1.2515186182074676
452,V1,d09172021,NtP4V,rating,32.0,19.0,Picc1n.jpg,3.134,70.0,-0.12522715328918746,0.6771915810848624
453,V1,d09172021,NtP4V,rating,33.0,6.0,Gusc1n.jpg,3.115,56.0,-0.13219066505689006,0.07714840797169309
454,V1,d09172021,NtP4V,rating,34.0,15.0,Lassc1.jpg,2.478,15.0,-0.3656515595846072,-1.6801208847168745
455,V1,d09172021,NtP4V,rating,35.0,8.0,Picd1n.jpg,2.7680000000000002,93.0,-0.25936637997230283,1.6629767940564981
456,V1,d09172021,NtP4V,rating,36.0,41.0,Picae1.jpg,2.522,77.0,-0.34952553233308525,0.9772131676414472
457,V1,d09172021,NtP4V,rating,37.0,18.0,Krab1n.jpg,2.465,23.0,-0.3704160676361934,-1.337239071509349
458,V1,d09172021,NtP4V,rating,38.0,5.0,Pica1n.jpg,2.6889999999999996,60.0,-0.2883199289011719,0.24858931457545574
459,V1,d09172021,NtP4V,rating,39.0,42.0,Mackc1.jpg,2.9160000000000004,26.0,-0.2051242883080922,-1.2086583915565272
460,V1,d09172021,NtP4V,rating,40.0,66.0,Vinca1.jpg,0.259,50.0,-1.178916433928413,-0.18001295193395092
461,V1,d09172021,NtP4V,rating,41.0,47.0,Vina1n.jpg,3.552,75.0,0.0279701056002722,0.8914927143395658
462,V1,d09172021,NtP4V,rating,42.0,26.0,Klid1n.jpg,6.294,77.0,1.0329148038655789,0.9772131676414472
463,V1,d09172021,NtP4V,rating,43.0,51.0,Lewic1.jpg,22.649,32.0,7.0270324333801994,-0.951497031650883
464,V1,d09172021,NtP4V,rating,44.0,65.0,Roha1n.jpg,2.517,70.0,-0.3513580354298491,0.6771915810848624
465,V1,d09172021,NtP4V,rating,45.0,54.0,Rohla1.jpg,3.0389999999999997,76.0,-0.1600447121277009,0.9343529409905064
466,V1,d09172021,NtP4V,rating,46.0,2.0,Dekb1n.jpg,2.853,23.0,-0.2282138273273169,-1.337239071509349
467,V1,d09172021,NtP4V,rating,47.0,48.0,Maca1n.jpg,7.454,64.0,1.4580555223147968,0.4200302211792185
468,V1,d09172021,NtP4V,rating,48.0,11.0,Clifa1.jpg,5.012,66.0,0.5630610098553223,0.5057506744810998
469,V1,d09172021,NtP4V,rating,49.0,1.0,Monda1.jpg,6.251,58.0,1.0171552772334098,0.16286886127357442
470,V1,d09172021,NtP4V,rating,50.0,69.0,Picad1.jpg,2.615,42.0,-0.31544097473327715,-0.5228947651414763
471,V1,d09172021,NtP4V,rating,51.0,44.0,Mackb1.jpg,2.742,30.0,-0.2688953960754749,-1.0372174849527642
472,V1,d09172021,NtP4V,rating,52.0,39.0,Kupb1n.jpg,2.964,59.0,-0.18753225857915906,0.20572908792451508
473,V1,d09172021,NtP4V,rating,53.0,4.0,Krasb1.jpg,2.8510000000000004,23.0,-0.2289468285660225,-1.337239071509349
474,V1,d09172021,NtP4V,rating,54.0,53.0,Macc1n.jpg,2.735,58.0,-0.27146090041094434,0.16286886127357442
475,V1,d09172021,NtP4V,rating,55.0,58.0,Klinc1.jpg,3.092,7.0,-0.1406201793020039,-2.0230026979244
476,V1,d09172021,NtP4V,rating,56.0,56.0,Clib1n.jpg,2.494,56.0,-0.3597875496749628,0.07714840797169309
477,V1,d09172021,NtP4V,rating,57.0,28.0,Pice1n.jpg,2.6430000000000002,79.0,-0.3051789573913996,1.0629336209433284
478,V1,d09172021,NtP4V,rating,58.0,12.0,Klie1n.jpg,2.4459999999999997,70.0,-0.37737957940389594,0.6771915810848624
479,V1,d09172021,NtP4V,rating,59.0,57.0,Lassa1.jpg,2.625,22.0,-0.3117759685397495,-1.3800992981602898
480,V1,d09172021,UmcnU,rating,0.0,18.0,Krab1n.jpg,8.142000000000001,30.0,1.8162003701051903,-0.8441581324164485
481,V1,d09172021,UmcnU,rating,1.0,29.0,Klinb1.jpg,6.817,74.0,0.9744649360076096,0.5205555660400266
482,V1,d09172021,UmcnU,rating,2.0,5.0,Pica1n.jpg,5.831,56.0,0.3480867186338624,-0.03773640151034957
483,V1,d09172021,UmcnU,rating,3.0,22.0,Klina1.jpg,6.972,2.0,1.0729320999963834,-1.7126123041614782
484,V1,d09172021,UmcnU,rating,4.0,1.0,Monda1.jpg,6.8,76.0,0.963665311570131,0.5825880068789574
485,V1,d09172021,UmcnU,rating,5.0,64.0,Vincb1.jpg,5.955,62.0,0.4268604498248811,0.14836092100644252
486,V1,d09172021,UmcnU,rating,6.0,3.0,Klib1n.jpg,4.059,74.0,-0.7776153109668276,0.5205555660400266
487,V1,d09172021,UmcnU,rating,7.0,21.0,Kupkc1.jpg,5.676,22.0,0.2496195546450886,-1.0922878957721711
488,V1,d09172021,UmcnU,rating,8.0,46.0,Lewb1n.jpg,8.274,69.0,1.9000562775020813,0.3654744639427
489,V1,d09172021,UmcnU,rating,9.0,69.0,Picad1.jpg,4.559,92.0,-0.4599792980998158,1.0788475335904029
490,V1,d09172021,UmcnU,rating,10.0,25.0,Dekob1.jpg,6.247999999999999,83.0,0.6129951533649501,0.7997015498152148
491,V1,d09172021,UmcnU,rating,11.0,57.0,Lassa1.jpg,7.297999999999999,92.0,1.280030780385675,1.0788475335904029
492,V1,d09172021,UmcnU,rating,12.0,48.0,Maca1n.jpg,10.249,0.0,3.154718528326779,-1.7746447450004088
493,V1,d09172021,UmcnU,rating,13.0,26.0,Klid1n.jpg,3.713,77.0,-0.9974194318707998,0.6136042272984227
494,V1,d09172021,UmcnU,rating,14.0,24.0,Lewa1n.jpg,5.696000000000001,39.0,0.2623249951597688,-0.5650121486412605
495,V1,d09172021,UmcnU,rating,15.0,34.0,Lasb1n.jpg,9.763,76.0,2.845976323820043,0.5825880068789574
496,V1,d09172021,UmcnU,rating,16.0,30.0,Kraa1n.jpg,5.811,86.0,0.3353812781191817,0.8927502110736107
497,V1,d09172021,UmcnU,rating,17.0,50.0,Klic1n.jpg,7.077999999999999,97.0,1.14027093472419,1.2339286356877297
498,V1,d09172021,UmcnU,rating,18.0,6.0,Gusc1n.jpg,5.672000000000001,36.0,0.24707846654215224,-0.6580608098996564
499,V1,d09172021,UmcnU,rating,19.0,67.0,Picab1.jpg,5.87,60.0,0.3728623276374892,0.08632848016751182
500,V1,d09172021,UmcnU,rating,20.0,8.0,Picd1n.jpg,3.6510000000000002,95.0,-1.0368062974663097,1.1718961948487991
501,V1,d09172021,UmcnU,rating,21.0,66.0,Vinca1.jpg,5.58,78.0,0.1886334401746223,0.6446204477178881
502,V1,d09172021,UmcnU,rating,22.0,55.0,Clia1n.jpg,4.813,0.0,-0.29862020356337404,-1.7746447450004088
503,V1,d09172021,UmcnU,rating,23.0,42.0,Mackc1.jpg,4.73,60.0,-0.3513477816992976,0.08632848016751182
504,V1,d09172021,UmcnU,rating,24.0,10.0,Vinb1n.jpg,4.379,85.0,-0.5743282627319404,0.8617339906541455
505,V1,d09172021,UmcnU,rating,25.0,45.0,Lasc1n.jpg,4.947,92.0,-0.21349375211501467,1.0788475335904029
506,V1,d09172021,UmcnU,rating,26.0,23.0,Rohlb1.jpg,6.327999999999999,35.0,0.6638169154236722,-0.6890770303191218
507,V1,d09172021,UmcnU,rating,27.0,4.0,Krasb1.jpg,3.705,25.0,-1.002501608076672,-0.9992392345137752
508,V1,d09172021,UmcnU,rating,28.0,61.0,Grigb1.jpg,3.858,83.0,-0.9053049881393664,0.7997015498152148
509,V1,d09172021,UmcnU,rating,29.0,39.0,Kupb1n.jpg,3.665,0.0,-1.027912489106033,-1.7746447450004088
510,V1,d09172021,UmcnU,rating,30.0,16.0,Vincc1.jpg,4.551,91.0,-0.465061474305688,1.0478313131709376
511,V1,d09172021,UmcnU,rating,31.0,40.0,Vinc1n.jpg,4.178,89.0,-0.7020179399044789,0.9857988723320068
512,V1,d09172021,UmcnU,rating,32.0,19.0,Picc1n.jpg,4.285,69.0,-0.6340438331509383,0.3654744639427
513,V1,d09172021,UmcnU,rating,33.0,0.0,Monb1n.jpg,7.608,0.0,1.4769651083632218,-1.7746447450004088
514,V1,d09172021,UmcnU,rating,34.0,28.0,Pice1n.jpg,3.823,93.0,-0.9275395090400572,1.109863754009868
515,V1,d09172021,UmcnU,rating,35.0,27.0,Gustc1.jpg,7.377999999999999,95.0,1.3308525424443969,1.1718961948487991
516,V1,d09172021,UmcnU,rating,36.0,13.0,Kupka1.jpg,5.0169999999999995,6.0,-0.16902471031363284,-1.5885474224836171
517,V1,d09172021,UmcnU,rating,37.0,36.0,Gustb1.jpg,5.132000000000001,72.0,-0.09596842735422056,0.458523125201096
518,V1,d09172021,UmcnU,rating,38.0,58.0,Klinc1.jpg,4.872,8.0,-0.2611391540450665,-1.526514981644686
519,V1,d09172021,UmcnU,rating,39.0,44.0,Mackb1.jpg,6.487,75.0,0.7648251675153818,0.5515717864594921
520,V1,d09172021,UmcnU,rating,40.0,38.0,Krasa1.jpg,6.933,62.0,1.048156490992756,0.14836092100644252
521,V1,d09172021,UmcnU,rating,41.0,17.0,Picaa1.jpg,4.894,82.0,-0.2471631694789179,0.7686853293957494
522,V1,d09172021,UmcnU,rating,42.0,59.0,Macka1.jpg,3.4410000000000003,0.0,-1.1702134228704544,-1.7746447450004088
523,V1,d09172021,UmcnU,rating,43.0,51.0,Lewic1.jpg,4.157,87.0,-0.7153586524448934,0.923766431493076
524,V1,d09172021,UmcnU,rating,44.0,14.0,Grib1n.jpg,3.687,72.0,-1.0139365045398847,0.458523125201096
525,V1,d09172021,UmcnU,rating,45.0,68.0,Mondb1.jpg,3.5069999999999997,1.0,-1.1282854691720088,-1.7436285245809435
526,V1,d09172021,UmcnU,rating,46.0,49.0,Lewc1n.jpg,5.0889999999999995,70.0,-0.1232851244607831,0.3964906843621653
527,V1,d09172021,UmcnU,rating,47.0,43.0,Clifb1.jpg,5.6129999999999995,74.0,0.2095974170238453,0.5205555660400266
528,V1,d09172021,UmcnU,rating,48.0,63.0,Lewia1.jpg,5.687,82.0,0.25660754692816296,0.7686853293957494
529,V1,d09172021,UmcnU,rating,49.0,65.0,Roha1n.jpg,5.002,13.0,-0.17855379069964356,-1.3714338795473595
530,V1,d09172021,UmcnU,rating,50.0,35.0,Gusa1n.jpg,4.534,2.0,-0.4758610987431666,-1.7126123041614782
531,V1,d09172021,UmcnU,rating,51.0,31.0,Picac1.jpg,4.013,76.0,-0.8068378241505929,0.5825880068789574
532,V1,d09172021,UmcnU,rating,52.0,9.0,Klind1.jpg,3.3939999999999997,11.0,-1.2000712080799534,-1.4334663203862898
533,V1,d09172021,UmcnU,rating,53.0,60.0,Kupc1n.jpg,3.3289999999999997,69.0,-1.2413638897526649,0.3654744639427
534,V1,d09172021,UmcnU,rating,54.0,2.0,Dekb1n.jpg,3.585,58.0,-1.0787342511647549,0.024296039328581133
535,V1,d09172021,UmcnU,rating,55.0,20.0,Picb1n.jpg,3.627,38.0,-1.052052826083926,-0.5960283690607258
536,V1,d09172021,UmcnU,rating,56.0,15.0,Lassc1.jpg,3.903,70.0,-0.8767177469813354,0.3964906843621653
537,V1,d09172021,UmcnU,rating,57.0,41.0,Picae1.jpg,4.735,74.0,-0.3481714215706275,0.5205555660400266
538,V1,d09172021,UmcnU,rating,58.0,7.0,Macb1n.jpg,4.022,53.0,-0.8011203759189864,-0.1307850627687456
539,V1,d09172021,UmcnU,rating,59.0,47.0,Vina1n.jpg,4.362,85.0,-0.5851278871694184,0.8617339906541455
540,V1,d09142021,OvCTN,rating,0.0,13.0,Kupka1.jpg,3.9360000000000004,73.0,1.8531597004734868,0.5680021934824369
541,V1,d09142021,OvCTN,rating,1.0,40.0,Vinc1n.jpg,2.4859999999999998,41.0,-0.13293111270257707,-0.4436529192135545
542,V1,d09142021,OvCTN,rating,2.0,10.0,Vinb1n.jpg,1.838,65.0,-1.0205082485219494,0.31508841530843906
543,V1,d09142021,OvCTN,rating,3.0,7.0,Macb1n.jpg,1.9980000000000002,59.0,-0.8013534001714873,0.12540308167794068
544,V1,d09142021,OvCTN,rating,4.0,64.0,Vincb1.jpg,3.4219999999999997,45.0,1.1491247501476272,-0.3171960301265556
545,V1,d09142021,OvCTN,rating,5.0,67.0,Picab1.jpg,1.974,81.0,-0.8342266274240566,0.8209159716564347
546,V1,d09142021,OvCTN,rating,6.0,69.0,Picad1.jpg,2.407,95.0,-0.2411388190756181,1.2635150834609308
547,V1,d09142021,OvCTN,rating,7.0,46.0,Lewb1n.jpg,2.7260000000000004,80.0,0.195801159823116,0.789301749384685
548,V1,d09142021,OvCTN,rating,8.0,0.0,Monb1n.jpg,2.575,32.0,-0.011026228307632484,-0.7281809196593021
549,V1,d09142021,OvCTN,rating,9.0,26.0,Klid1n.jpg,2.31,80.0,-0.3740014458880858,0.789301749384685
550,V1,d09142021,OvCTN,rating,10.0,63.0,Lewia1.jpg,3.135,81.0,0.7560157409189849,0.8209159716564347
551,V1,d09142021,OvCTN,rating,11.0,61.0,Grigb1.jpg,2.503,90.0,-0.1096459100653406,1.1054439721021825
552,V1,d09142021,OvCTN,rating,12.0,35.0,Gusa1n.jpg,3.407,78.0,1.1285789831147712,0.7260733048411856
553,V1,d09142021,OvCTN,rating,13.0,66.0,Vinca1.jpg,2.335,50.0,-0.3397585008333262,-0.15912491876780693
554,V1,d09142021,OvCTN,rating,14.0,55.0,Clia1n.jpg,3.463,66.0,1.2052831800374328,0.3467026375801888
555,V1,d09142021,OvCTN,rating,15.0,50.0,Klic1n.jpg,2.2230000000000003,25.0,-0.4931668946786499,-0.9494804755615502
556,V1,d09142021,OvCTN,rating,16.0,2.0,Dekb1n.jpg,3.718,66.0,1.554561219595982,0.3467026375801888
557,V1,d09142021,OvCTN,rating,17.0,22.0,Klina1.jpg,4.086,89.0,2.058617370802046,1.0738297498304326
558,V1,d09142021,OvCTN,rating,18.0,57.0,Lassa1.jpg,3.031,9.0,0.6135650894911849,-1.455308031909546
559,V1,d09142021,OvCTN,rating,19.0,39.0,Kupb1n.jpg,2.0709999999999997,87.0,-0.7013640006115887,1.0106013052869331
560,V1,d09142021,OvCTN,rating,20.0,48.0,Maca1n.jpg,2.9189999999999996,21.0,0.4601566956458612,-1.075937364648549
561,V1,d09142021,OvCTN,rating,21.0,53.0,Macc1n.jpg,2.503,16.0,-0.1096459100653406,-1.2340084760072978
562,V1,d09142021,OvCTN,rating,22.0,58.0,Klinc1.jpg,2.2230000000000003,72.0,-0.4931668946786499,0.5363879712106872
563,V1,d09142021,OvCTN,rating,23.0,4.0,Krasb1.jpg,2.5269999999999997,73.0,-0.07677268281277122,0.5680021934824369
564,V1,d09142021,OvCTN,rating,24.0,54.0,Rohla1.jpg,2.7430000000000003,73.0,0.21908636246035249,0.5680021934824369
565,V1,d09142021,OvCTN,rating,25.0,25.0,Dekob1.jpg,1.903,15.0,-0.9314765913795744,-1.2656226982790475
566,V1,d09142021,OvCTN,rating,26.0,24.0,Lewa1n.jpg,2.231,19.0,-0.4822091522611268,-1.139165809192049
567,V1,d09142021,OvCTN,rating,27.0,52.0,Dekoa1.jpg,3.471,19.0,1.2162409224549562,-1.139165809192049
568,V1,d09142021,OvCTN,rating,28.0,56.0,Clib1n.jpg,2.174,29.0,-0.5602830669859789,-0.8230235864745513
569,V1,d09142021,OvCTN,rating,29.0,3.0,Klib1n.jpg,2.086,56.0,-0.6808182335787333,0.030560414862691468
570,V1,d09142021,OvCTN,rating,30.0,51.0,Lewic1.jpg,3.918,91.0,1.82850478003406,1.1370581943739322
571,V1,d09142021,OvCTN,rating,31.0,5.0,Pica1n.jpg,1.975,84.0,-0.8328569096218661,0.915758638471684
572,V1,d09142021,OvCTN,rating,32.0,15.0,Lassc1.jpg,2.6310000000000002,26.0,0.06567796861502878,-0.9178662532898004
573,V1,d09142021,OvCTN,rating,33.0,45.0,Lasc1n.jpg,2.91,22.0,0.44782923542614783,-1.0443231423767994
574,V1,d09142021,OvCTN,rating,34.0,23.0,Rohlb1.jpg,2.23,93.0,-0.48357887006331707,1.2002866389174316
575,V1,d09142021,OvCTN,rating,35.0,16.0,Vincc1.jpg,1.9509999999999998,6.0,-0.8657301368744355,-1.550150698724795
576,V1,d09142021,OvCTN,rating,36.0,21.0,Kupkc1.jpg,1.775,75.0,-1.1068004700599443,0.6312306380259364
577,V1,d09142021,OvCTN,rating,37.0,27.0,Gustc1.jpg,4.07,80.0,2.036701885967,0.789301749384685
578,V1,d09142021,OvCTN,rating,38.0,36.0,Gustb1.jpg,2.095,87.0,-0.6684907733590193,1.0106013052869331
579,V1,d09142021,OvCTN,rating,39.0,19.0,Picc1n.jpg,2.487,63.0,-0.13156139490038685,0.2518599707649396
580,V1,d09142021,OvCTN,rating,40.0,38.0,Krasa1.jpg,2.43,72.0,-0.20963530962523894,0.5363879712106872
581,V1,d09142021,OvCTN,rating,41.0,43.0,Clifb1.jpg,2.366,4.0,-0.2972972489654239,-1.613379143268295
582,V1,d09142021,OvCTN,rating,42.0,34.0,Lasb1n.jpg,2.286,5.0,-0.4068746731406552,-1.5817649209965448
583,V1,d09142021,OvCTN,rating,43.0,42.0,Mackc1.jpg,2.287,3.0,-0.4055049553384649,-1.6449933655400444
584,V1,d09142021,OvCTN,rating,44.0,9.0,Klind1.jpg,2.614,98.0,0.04239276597779229,1.3583577502761799
585,V1,d09142021,OvCTN,rating,45.0,31.0,Picac1.jpg,2.239,98.0,-0.4712514098436037,1.3583577502761799
586,V1,d09142021,OvCTN,rating,46.0,68.0,Mondb1.jpg,1.575,87.0,-1.3807440304980219,1.0106013052869331
587,V1,d09142021,OvCTN,rating,47.0,1.0,Monda1.jpg,5.727,45.0,4.3063242841964735,-0.3171960301265556
588,V1,d09142021,OvCTN,rating,48.0,62.0,Mona1n.jpg,1.879,50.0,-0.9643498186321436,-0.15912491876780693
589,V1,d09142021,OvCTN,rating,49.0,44.0,Mackb1.jpg,2.647,24.0,0.08759345345007502,-0.9810946978333001
590,V1,d09142021,OvCTN,rating,50.0,47.0,Vina1n.jpg,2.191,24.0,-0.5369978643487424,-0.9810946978333001
591,V1,d09142021,OvCTN,rating,51.0,32.0,Kupkb1.jpg,1.999,87.0,-0.7999836823692967,1.0106013052869331
592,V1,d09142021,OvCTN,rating,52.0,28.0,Pice1n.jpg,1.983,82.0,-0.8218991672043431,0.8525301939281845
593,V1,d09142021,OvCTN,rating,53.0,59.0,Macka1.jpg,1.9909999999999999,97.0,-0.8109414247868199,1.3267435280044304
594,V1,d09142021,OvCTN,rating,54.0,17.0,Picaa1.jpg,2.431,89.0,-0.2082655918230487,1.0738297498304326
595,V1,d09142021,OvCTN,rating,55.0,6.0,Gusc1n.jpg,2.511,10.0,-0.09868816764781747,-1.4236938096377962
596,V1,d09142021,OvCTN,rating,56.0,20.0,Picb1n.jpg,2.015,24.0,-0.7780681975342505,-0.9810946978333001
597,V1,d09142021,OvCTN,rating,57.0,49.0,Lewc1n.jpg,2.19,13.0,-0.5383675821509326,-1.3288511428225471
598,V1,d09142021,OvCTN,rating,58.0,8.0,Picd1n.jpg,2.35,78.0,-0.31921273380047016,0.7260733048411856
599,V1,d09142021,OvCTN,rating,59.0,33.0,Kline1.jpg,2.806,0.0,0.3053785839983472,-1.7398360323552935
600,V1,d09172021,bOPuu,rating,0.0,50.0,Klic1n.jpg,4.181,50.0,2.163197390423055,0.20439141676560227
601,V1,d09172021,bOPuu,rating,1.0,29.0,Klinb1.jpg,2.8310000000000004,19.0,0.0067621549359714525,-1.4630122463222068
602,V1,d09172021,bOPuu,rating,2.0,2.0,Dekb1n.jpg,2.7110000000000003,39.0,-0.18492097710732505,-0.3872679475558784
603,V1,d09172021,bOPuu,rating,3.0,5.0,Pica1n.jpg,2.2,37.0,-1.001171647725028,-0.4948423774325113
604,V1,d09172021,bOPuu,rating,4.0,53.0,Macc1n.jpg,2.9410000000000003,46.0,0.18247169264232616,-0.010757442987663438
605,V1,d09172021,bOPuu,rating,5.0,45.0,Lasc1n.jpg,3.11,25.0,0.4524254369366352,-1.1402889566923082
606,V1,d09172021,bOPuu,rating,6.0,32.0,Kupkb1.jpg,2.633,58.0,-0.3095150129354673,0.6346891362721336
607,V1,d09172021,bOPuu,rating,7.0,68.0,Mondb1.jpg,2.377,46.0,-0.7184390279611665,-0.010757442987663438
608,V1,d09172021,bOPuu,rating,8.0,47.0,Vina1n.jpg,2.435,58.0,-0.6257921808069061,0.6346891362721336
609,V1,d09172021,bOPuu,rating,9.0,41.0,Picae1.jpg,2.5140000000000002,76.0,-0.4996007855450698,1.6028590051618292
610,V1,d09172021,bOPuu,rating,10.0,69.0,Picad1.jpg,2.423,57.0,-0.6449604940112358,0.5809019213338172
611,V1,d09172021,bOPuu,rating,11.0,52.0,Dekoa1.jpg,2.555,33.0,-0.4341090487636097,-0.709991237185777
612,V1,d09172021,bOPuu,rating,12.0,46.0,Lewb1n.jpg,2.7969999999999997,60.0,-0.047548065809628864,0.7422635661487665
613,V1,d09172021,bOPuu,rating,13.0,38.0,Krasa1.jpg,3.2030000000000003,38.0,0.6009798642701898,-0.4410551624941949
614,V1,d09172021,bOPuu,rating,14.0,18.0,Krab1n.jpg,2.398,13.0,-0.6848944798535891,-1.7857355359521054
615,V1,d09172021,bOPuu,rating,15.0,12.0,Klie1n.jpg,2.397,76.0,-0.6864918392872837,1.6028590051618292
616,V1,d09172021,bOPuu,rating,16.0,55.0,Clia1n.jpg,3.05,37.0,0.3565838709149869,-0.4948423774325113
617,V1,d09172021,bOPuu,rating,17.0,6.0,Gusc1n.jpg,2.299,61.0,-0.8430330637893089,0.7960507810870829
618,V1,d09172021,bOPuu,rating,18.0,15.0,Lassc1.jpg,2.492,23.0,-0.5347426930863405,-1.2478633865689412
619,V1,d09172021,bOPuu,rating,19.0,36.0,Gustb1.jpg,2.679,54.0,-0.2360364789855374,0.419540276518868
620,V1,d09172021,bOPuu,rating,20.0,20.0,Picb1n.jpg,2.891,34.0,0.10260372095761967,-0.6562040222474605
621,V1,d09172021,bOPuu,rating,21.0,49.0,Lewc1n.jpg,2.8289999999999997,61.0,0.003567436068583532,0.7960507810870829
622,V1,d09172021,bOPuu,rating,22.0,40.0,Vinc1n.jpg,2.897,13.0,0.11218787755978417,-1.7857355359521054
623,V1,d09172021,bOPuu,rating,23.0,25.0,Dekob1.jpg,2.6060000000000003,33.0,-0.35264371764520924,-0.709991237185777
624,V1,d09172021,bOPuu,rating,24.0,66.0,Vinca1.jpg,2.846,18.0,0.030722546441383686,-1.5167994612605231
625,V1,d09172021,bOPuu,rating,25.0,44.0,Mackb1.jpg,2.6239999999999997,20.0,-0.3238912478387144,-1.4092250313838903
626,V1,d09172021,bOPuu,rating,26.0,26.0,Klid1n.jpg,2.157,40.0,-1.069858103373876,-0.333480732617562
627,V1,d09172021,bOPuu,rating,27.0,13.0,Kupka1.jpg,2.9139999999999997,57.0,0.13934298793258498,0.5809019213338172
628,V1,d09172021,bOPuu,rating,28.0,60.0,Kupc1n.jpg,3.87,48.0,1.6664186065441788,0.0968169868889694
629,V1,d09172021,bOPuu,rating,29.0,39.0,Kupb1n.jpg,3.47,44.0,1.0274748330665249,-0.11833187286429628
630,V1,d09172021,bOPuu,rating,30.0,67.0,Picab1.jpg,2.488,40.0,-0.5411321308211171,-0.333480732617562
631,V1,d09172021,bOPuu,rating,31.0,51.0,Lewic1.jpg,3.635,54.0,1.2910391396260563,0.419540276518868
632,V1,d09172021,bOPuu,rating,32.0,61.0,Grigb1.jpg,3.355,82.0,0.8437784981916987,1.925582294791728
633,V1,d09172021,bOPuu,rating,33.0,19.0,Picc1n.jpg,2.315,26.0,-0.8174753128502027,-1.086501741753992
634,V1,d09172021,bOPuu,rating,34.0,59.0,Macka1.jpg,2.282,15.0,-0.870188174162109,-1.6781611060754726
635,V1,d09172021,bOPuu,rating,35.0,64.0,Vincb1.jpg,2.169,22.0,-1.0506897901695462,-1.3016506015072575
636,V1,d09172021,bOPuu,rating,36.0,0.0,Monb1n.jpg,2.351,43.0,-0.7599703732372137,-0.1721190878026127
637,V1,d09172021,bOPuu,rating,37.0,34.0,Lasb1n.jpg,2.135,60.0,-1.1050000109151474,0.7422635661487665
638,V1,d09172021,bOPuu,rating,38.0,3.0,Klib1n.jpg,2.271,56.0,-0.8877591279327447,0.5271147063955008
639,V1,d09172021,bOPuu,rating,39.0,65.0,Roha1n.jpg,2.475,75.0,-0.5618978034591406,1.5490717902235132
640,V1,d09172021,bOPuu,rating,40.0,27.0,Gustc1.jpg,5.412000000000001,85.0,4.129546853300536,2.0869439396066767
641,V1,d09172021,bOPuu,rating,41.0,63.0,Lewia1.jpg,2.767,56.0,-0.09546884882045333,0.5271147063955008
642,V1,d09172021,bOPuu,rating,42.0,48.0,Maca1n.jpg,3.6260000000000003,53.0,1.2766629047228093,0.3657530615805515
643,V1,d09172021,bOPuu,rating,43.0,4.0,Krasb1.jpg,2.522,23.0,-0.4868219100755168,-1.2478633865689412
644,V1,d09172021,bOPuu,rating,44.0,11.0,Clifa1.jpg,3.335,17.0,0.8118313095178159,-1.5705866761988396
645,V1,d09172021,bOPuu,rating,45.0,16.0,Vincc1.jpg,2.593,33.0,-0.3734093902832328,-0.709991237185777
646,V1,d09172021,bOPuu,rating,46.0,1.0,Monda1.jpg,2.9789999999999996,74.0,0.24317135112270374,1.4952845752851964
647,V1,d09172021,bOPuu,rating,47.0,62.0,Mona1n.jpg,1.909,66.0,-1.4660032429300216,1.064986855778665
648,V1,d09172021,bOPuu,rating,48.0,9.0,Klind1.jpg,4.377,63.0,2.476279839427105,0.9036252109637156
649,V1,d09172021,bOPuu,rating,49.0,31.0,Picac1.jpg,3.4610000000000003,40.0,1.0130985981632767,-0.333480732617562
650,V1,d09172021,bOPuu,rating,50.0,54.0,Rohla1.jpg,3.196,64.0,0.5897983482343313,0.9574124259020322
651,V1,d09172021,bOPuu,rating,51.0,22.0,Klina1.jpg,2.2030000000000003,29.0,-0.996379569423946,-0.9251400969390426
652,V1,d09172021,bOPuu,rating,52.0,57.0,Lassa1.jpg,2.301,57.0,-0.8398383449219202,0.5809019213338172
653,V1,d09172021,bOPuu,rating,53.0,8.0,Picd1n.jpg,2.326,64.0,-0.7999043590795669,0.9574124259020322
654,V1,d09172021,bOPuu,rating,54.0,21.0,Kupkc1.jpg,2.782,37.0,-0.0715084573150411,-0.4948423774325113
655,V1,d09172021,bOPuu,rating,55.0,43.0,Clifb1.jpg,2.915,54.0,0.14094034736627895,0.419540276518868
656,V1,d09172021,bOPuu,rating,56.0,35.0,Gusa1n.jpg,3.0669999999999997,73.0,0.38373898128778783,1.44149736034688
657,V1,d09172021,bOPuu,rating,57.0,17.0,Picaa1.jpg,3.852,52.0,1.637666136737684,0.3119658466422351
658,V1,d09172021,bOPuu,rating,58.0,56.0,Clib1n.jpg,2.878,40.0,0.08183804831959607,-0.333480732617562
659,V1,d09172021,bOPuu,rating,59.0,7.0,Macb1n.jpg,2.299,45.0,-0.8430330637893089,-0.06454465792597988
660,V1,d09142021,skpJF,rating,0.0,0.0,Monb1n.jpg,3.245,79.0,-0.6959535066730949,1.0681278627085486
661,V1,d09142021,skpJF,rating,1.0,3.0,Klib1n.jpg,4.1419999999999995,90.0,0.33641013725904745,1.5003561823821492
662,V1,d09142021,skpJF,rating,2.0,52.0,Dekoa1.jpg,3.015,76.0,-0.960662133322362,0.9502474118884758
663,V1,d09142021,skpJF,rating,3.0,54.0,Rohla1.jpg,3.551,89.0,-0.3437759425223306,1.461062698775458
664,V1,d09142021,skpJF,rating,4.0,68.0,Mondb1.jpg,3.0380000000000003,62.0,-0.9341912706574356,0.40013864139480265
665,V1,d09142021,skpJF,rating,5.0,58.0,Klinc1.jpg,2.75,93.0,-1.2656525075052134,1.6182366332022218
666,V1,d09142021,skpJF,rating,6.0,17.0,Picaa1.jpg,3.367,55.0,-0.5555428438417446,0.12508425614796606
667,V1,d09142021,skpJF,rating,7.0,51.0,Lewic1.jpg,4.468999999999999,74.0,0.7127567499299621,0.8716604446750942
668,V1,d09142021,skpJF,rating,8.0,57.0,Lassa1.jpg,4.239,34.0,0.4480481232806944,-0.7000788995925438
669,V1,d09142021,skpJF,rating,9.0,16.0,Vincc1.jpg,5.229,13.0,1.5874461249449316,-1.5252420553330537
670,V1,d09142021,skpJF,rating,10.0,28.0,Pice1n.jpg,3.855,32.0,0.006099807483657121,-0.7786658668059256
671,V1,d09142021,skpJF,rating,11.0,44.0,Mackb1.jpg,2.8939999999999997,67.0,-1.0999218890813245,0.5966060594282574
672,V1,d09142021,skpJF,rating,12.0,38.0,Krasa1.jpg,3.198,75.0,-0.7500461390753366,0.9109539282817848
673,V1,d09142021,skpJF,rating,13.0,45.0,Lasc1n.jpg,3.4619999999999997,27.0,-0.44620667196487307,-0.9751332848393804
674,V1,d09142021,skpJF,rating,14.0,12.0,Klie1n.jpg,2.9810000000000003,85.0,-0.9997929737835582,1.3038887643486945
675,V1,d09142021,skpJF,rating,15.0,64.0,Vincb1.jpg,2.798,81.0,-1.2104089680305838,1.1467148299219303
676,V1,d09142021,skpJF,rating,16.0,50.0,Klic1n.jpg,3.111,79.0,-0.8501750543731026,1.0681278627085486
677,V1,d09142021,skpJF,rating,17.0,59.0,Macka1.jpg,3.471,41.0,-0.4358485083133801,-0.4250245143457072
678,V1,d09142021,skpJF,rating,18.0,36.0,Gustb1.jpg,4.053999999999999,81.0,0.23513031488889294,1.1467148299219303
679,V1,d09142021,skpJF,rating,19.0,25.0,Dekob1.jpg,3.325,79.0,-0.6038809408820452,1.0681278627085486
680,V1,d09142021,skpJF,rating,20.0,19.0,Picc1n.jpg,3.1830000000000003,32.0,-0.7673097451611585,-0.7786658668059256
681,V1,d09142021,skpJF,rating,21.0,23.0,Rohlb1.jpg,4.678999999999999,5.0,0.9544472351314668,-1.8395899241865807
682,V1,d09142021,skpJF,rating,22.0,18.0,Krab1n.jpg,3.43,67.0,-0.4830356982812929,0.5966060594282574
683,V1,d09142021,skpJF,rating,23.0,65.0,Roha1n.jpg,4.319,47.0,0.5401206890717439,-0.1892636127055615
684,V1,d09142021,skpJF,rating,24.0,53.0,Macc1n.jpg,3.0060000000000002,36.0,-0.9710202969738556,-0.6214919323791619
685,V1,d09142021,skpJF,rating,25.0,66.0,Vinca1.jpg,4.382,95.0,0.6126278346321951,1.6968236004156037
686,V1,d09142021,skpJF,rating,26.0,34.0,Lasb1n.jpg,4.055,16.0,0.2362812219612805,-1.4073616045129806
687,V1,d09142021,skpJF,rating,27.0,41.0,Picae1.jpg,3.111,50.0,-0.8501750543731026,-0.07138316188548867
688,V1,d09142021,skpJF,rating,28.0,11.0,Clifa1.jpg,3.094,71.0,-0.869740474603701,0.7537799938550211
689,V1,d09142021,skpJF,rating,29.0,48.0,Maca1n.jpg,6.013999999999999,72.0,2.4909081767696044,0.7930734774617121
690,V1,d09142021,skpJF,rating,30.0,15.0,Lassc1.jpg,3.221,0.0,-0.7235752764104096,-2.036057342220036
691,V1,d09142021,skpJF,rating,31.0,32.0,Kupkb1.jpg,3.423,82.0,-0.4910920477880098,1.1860083135286217
692,V1,d09142021,skpJF,rating,32.0,26.0,Klid1n.jpg,3.0380000000000003,35.0,-0.9341912706574356,-0.6607854159858528
693,V1,d09142021,skpJF,rating,33.0,35.0,Gusa1n.jpg,4.99,58.0,1.3123793346441714,0.2429647069680389
694,V1,d09142021,skpJF,rating,34.0,33.0,Kline1.jpg,4.102,49.0,0.2903738543635227,-0.11067664549217962
695,V1,d09142021,skpJF,rating,35.0,30.0,Kraa1n.jpg,3.694,30.0,-0.17919623117082994,-0.8572528340193075
696,V1,d09142021,skpJF,rating,36.0,40.0,Vinc1n.jpg,4.471,13.0,0.7150585640747379,-1.5252420553330537
697,V1,d09142021,skpJF,rating,37.0,21.0,Kupkc1.jpg,2.79,72.0,-1.2196162246096889,0.7930734774617121
698,V1,d09142021,skpJF,rating,38.0,49.0,Lewc1n.jpg,4.263,38.0,0.4756698930180093,-0.54290496516578
699,V1,d09142021,skpJF,rating,39.0,7.0,Macb1n.jpg,4.005,39.0,0.17873586834187474,-0.5036114815590891
700,V1,d09142021,skpJF,rating,40.0,69.0,Picad1.jpg,3.9019999999999997,13.0,0.06019243988589885,-1.5252420553330537
701,V1,d09142021,skpJF,rating,41.0,46.0,Lewb1n.jpg,4.854,84.0,1.1558559727993871,1.2645952807420031
702,V1,d09142021,skpJF,rating,42.0,1.0,Monda1.jpg,3.846,62.0,-0.004258356167835824,0.40013864139480265
703,V1,d09142021,skpJF,rating,43.0,43.0,Clifb1.jpg,4.871,37.0,1.1754213930299855,-0.5821984487724711
704,V1,d09142021,skpJF,rating,44.0,55.0,Clia1n.jpg,3.35,25.0,-0.5751082640723424,-1.0537202520527622
705,V1,d09142021,skpJF,rating,45.0,27.0,Gustc1.jpg,4.534,100.0,0.7875657096351891,1.8932910184490583
706,V1,d09142021,skpJF,rating,46.0,5.0,Pica1n.jpg,3.71,30.0,-0.16078171801262006,-0.8572528340193075
707,V1,d09142021,skpJF,rating,47.0,37.0,Deka1n.jpg,2.99,22.0,-0.9894348101320648,-1.171600702872835
708,V1,d09142021,skpJF,rating,48.0,63.0,Lewia1.jpg,3.486,65.0,-0.41858490222755823,0.5180190922148755
709,V1,d09142021,skpJF,rating,49.0,31.0,Picac1.jpg,3.766,55.0,-0.09633092195888536,0.12508425614796606
710,V1,d09142021,skpJF,rating,50.0,60.0,Kupc1n.jpg,2.935,39.0,-1.0527346991134114,-0.5036114815590891
711,V1,d09142021,skpJF,rating,51.0,9.0,Klind1.jpg,3.3739999999999997,38.0,-0.5474864943350276,-0.54290496516578
712,V1,d09142021,skpJF,rating,52.0,62.0,Mona1n.jpg,4.614,34.0,0.8796382754262387,-0.7000788995925438
713,V1,d09142021,skpJF,rating,53.0,47.0,Vina1n.jpg,5.55,51.0,1.9568872951815173,-0.03208967827879773
714,V1,d09142021,skpJF,rating,54.0,67.0,Picab1.jpg,5.015,37.0,1.341152011453874,-0.5821984487724711
715,V1,d09142021,skpJF,rating,55.0,10.0,Vinb1n.jpg,3.375,26.0,-0.5463355872626395,-1.0144267684460713
716,V1,d09142021,skpJF,rating,56.0,2.0,Dekb1n.jpg,7.191,47.0,3.845525800970419,-0.1892636127055615
717,V1,d09142021,skpJF,rating,57.0,22.0,Klina1.jpg,4.038,35.0,0.21671580173068306,-0.6607854159858528
718,V1,d09142021,skpJF,rating,58.0,8.0,Picd1n.jpg,3.4939999999999998,27.0,-0.4093776456484533,-0.9751332848393804
719,V1,d09142021,skpJF,rating,59.0,61.0,Grigb1.jpg,4.623,63.0,0.8899964390777322,0.4394321250014936
720,V1,d09142021,Pj09s,rating,0.0,68.0,Mondb1.jpg,2.697,70.0,0.2854336434608811,0.5384129650269502
721,V1,d09142021,Pj09s,rating,1.0,64.0,Vincb1.jpg,2.13,62.0,-0.9753366175802972,0.1414264470347289
722,V1,d09142021,Pj09s,rating,2.0,10.0,Vinb1n.jpg,2.141,77.0,-0.9508772297999564,0.8857761682701438
723,V1,d09142021,Pj09s,rating,3.0,48.0,Maca1n.jpg,3.5039999999999996,44.0,2.0798632742549383,-0.751793218447769
724,V1,d09142021,Pj09s,rating,4.0,54.0,Rohla1.jpg,2.416,94.0,-0.33939253529144897,1.729372519003614
725,V1,d09142021,Pj09s,rating,5.0,51.0,Lewic1.jpg,2.305,81.0,-0.5862099938021552,1.0842694272662543
726,V1,d09142021,Pj09s,rating,6.0,47.0,Vina1n.jpg,2.202,76.0,-0.815238806654433,0.8361528535211161
727,V1,d09142021,Pj09s,rating,7.0,55.0,Clia1n.jpg,3.036,53.0,1.0392275032368232,-0.30518338570652004
728,V1,d09142021,Pj09s,rating,8.0,49.0,Lewc1n.jpg,2.7880000000000003,35.0,0.487779487825514,-1.198403051189018
729,V1,d09142021,Pj09s,rating,9.0,36.0,Gustb1.jpg,3.447,64.0,1.953119173938629,0.24067307653278425
730,V1,d09142021,Pj09s,rating,10.0,1.0,Monda1.jpg,2.469,80.0,-0.2215427578043549,1.0346461125172268
731,V1,d09142021,Pj09s,rating,11.0,28.0,Pice1n.jpg,2.734,92.0,0.3677061296311165,1.6301258895055588
732,V1,d09142021,Pj09s,rating,12.0,17.0,Picaa1.jpg,3.447,67.0,1.953119173938629,0.3895430207798672
733,V1,d09142021,Pj09s,rating,13.0,23.0,Rohlb1.jpg,2.324,56.0,-0.5439619603633863,-0.15631344145943707
734,V1,d09142021,Pj09s,rating,14.0,59.0,Macka1.jpg,2.5180000000000002,44.0,-0.11258730314647547,-0.751793218447769
735,V1,d09142021,Pj09s,rating,15.0,4.0,Krasb1.jpg,2.225,27.0,-0.7640964503864486,-1.5953895691812392
736,V1,d09142021,Pj09s,rating,16.0,15.0,Lassc1.jpg,2.026,12.0,-1.2065890111398785,-2.3397392904166545
737,V1,d09142021,Pj09s,rating,17.0,40.0,Vinc1n.jpg,2.7889999999999997,34.0,0.4900030685328184,-1.2480263659380455
738,V1,d09142021,Pj09s,rating,18.0,12.0,Klie1n.jpg,2.154,63.0,-0.9219706806050092,0.19104976178375654
739,V1,d09142021,Pj09s,rating,19.0,3.0,Klib1n.jpg,2.5980000000000003,53.0,0.06529915343781782,-0.30518338570652004
740,V1,d09142021,Pj09s,rating,20.0,60.0,Kupc1n.jpg,2.448,28.0,-0.26823795265773165,-1.5457662544322115
741,V1,d09142021,Pj09s,rating,21.0,62.0,Mona1n.jpg,2.22,58.0,-0.7752143539229666,-0.05706681196138174
742,V1,d09142021,Pj09s,rating,22.0,52.0,Dekoa1.jpg,2.015,37.0,-1.2310483989202181,-1.0991564216909626
743,V1,d09142021,Pj09s,rating,23.0,8.0,Picd1n.jpg,2.086,90.0,-1.0731741687016585,1.5308792600075034
744,V1,d09142021,Pj09s,rating,24.0,53.0,Macc1n.jpg,2.362,62.0,-0.4594658934858465,0.1414264470347289
745,V1,d09142021,Pj09s,rating,25.0,46.0,Lewb1n.jpg,2.294,59.0,-0.6106693815824958,-0.00744349721235408
746,V1,d09142021,Pj09s,rating,26.0,24.0,Lewa1n.jpg,2.53,69.0,-0.08590433465883149,0.4887896502779226
747,V1,d09142021,Pj09s,rating,27.0,63.0,Lewia1.jpg,2.3409999999999997,84.0,-0.5061610883392232,1.2331393715133374
748,V1,d09142021,Pj09s,rating,28.0,56.0,Clib1n.jpg,2.197,56.0,-0.8263567101909511,-0.15631344145943707
749,V1,d09142021,Pj09s,rating,29.0,67.0,Picab1.jpg,1.8980000000000001,46.0,-1.4912073416747471,-0.6525465889497137
750,V1,d09142021,Pj09s,rating,30.0,25.0,Dekob1.jpg,3.333,44.0,1.6996309733060118,-0.751793218447769
751,V1,d09142021,Pj09s,rating,31.0,39.0,Kupb1n.jpg,2.165,73.0,-0.8975112928246685,0.6872829092740332
752,V1,d09142021,Pj09s,rating,32.0,58.0,Klinc1.jpg,2.87,27.0,0.6701131058244151,-1.5953895691812392
753,V1,d09142021,Pj09s,rating,33.0,7.0,Macb1n.jpg,2.824,50.0,0.5678283932884459,-0.454053329953603
754,V1,d09142021,Pj09s,rating,34.0,65.0,Roha1n.jpg,2.355,93.0,-0.4750309584369724,1.6797492042545863
755,V1,d09142021,Pj09s,rating,35.0,5.0,Pica1n.jpg,2.563,57.0,-0.012526171317809757,-0.1066901267104094
756,V1,d09142021,Pj09s,rating,36.0,31.0,Picac1.jpg,3.1289999999999996,64.0,1.246020509016064,0.24067307653278425
757,V1,d09142021,Pj09s,rating,37.0,37.0,Deka1n.jpg,4.301,37.0,3.852057097975959,-1.0991564216909626
758,V1,d09142021,Pj09s,rating,38.0,19.0,Picc1n.jpg,2.295,40.0,-0.6084458008751924,-0.9502864774438796
759,V1,d09142021,Pj09s,rating,39.0,27.0,Gustc1.jpg,2.9160000000000004,99.0,0.7723978183603832,1.9774890927487525
760,V1,d09142021,Pj09s,rating,40.0,0.0,Monb1n.jpg,2.718,46.0,0.3321288383142578,-0.6525465889497137
761,V1,d09142021,Pj09s,rating,41.0,33.0,Kline1.jpg,2.3680000000000003,60.0,-0.44612440924202496,0.04217981753667358
762,V1,d09142021,Pj09s,rating,42.0,18.0,Krab1n.jpg,3.1660000000000004,65.0,1.3282929951862994,0.2902963912818119
763,V1,d09142021,Pj09s,rating,43.0,61.0,Grigb1.jpg,2.415,80.0,-0.3416161159987524,1.0346461125172268
764,V1,d09142021,Pj09s,rating,44.0,34.0,Lasb1n.jpg,2.496,81.0,-0.16150607870715564,1.0842694272662543
765,V1,d09142021,Pj09s,rating,45.0,66.0,Vinca1.jpg,2.6839999999999997,68.0,0.2565270942659336,0.4391663355288949
766,V1,d09142021,Pj09s,rating,46.0,16.0,Vincc1.jpg,2.775,43.0,0.4588729386305666,-0.8014165331967966
767,V1,d09142021,Pj09s,rating,47.0,22.0,Klina1.jpg,2.4419999999999997,55.0,-0.2815794369015531,-0.20593675620846472
768,V1,d09142021,Pj09s,rating,48.0,13.0,Kupka1.jpg,2.481,43.0,-0.1948597893167109,-0.8014165331967966
769,V1,d09142021,Pj09s,rating,49.0,21.0,Kupkc1.jpg,2.889,79.0,0.7123611392631841,0.9850227977681992
770,V1,d09142021,Pj09s,rating,50.0,44.0,Mackb1.jpg,2.645,50.0,0.1698074466810904,-0.454053329953603
771,V1,d09142021,Pj09s,rating,51.0,50.0,Klic1n.jpg,2.07,63.0,-1.108751460018517,0.19104976178375654
772,V1,d09142021,Pj09s,rating,52.0,43.0,Clifb1.jpg,2.319,76.0,-0.5550798638999044,0.8361528535211161
773,V1,d09142021,Pj09s,rating,53.0,6.0,Gusc1n.jpg,3.2119999999999997,12.0,1.4305777077222686,-2.3397392904166545
774,V1,d09142021,Pj09s,rating,54.0,20.0,Picb1n.jpg,2.162,45.0,-0.9041820349465798,-0.7021699036987413
775,V1,d09142021,Pj09s,rating,55.0,42.0,Mackc1.jpg,2.117,44.0,-1.0042431667752445,-0.751793218447769
776,V1,d09142021,Pj09s,rating,56.0,32.0,Kupkb1.jpg,2.5380000000000003,66.0,-0.06811568900040216,0.33991970603083954
777,V1,d09142021,Pj09s,rating,57.0,29.0,Klinb1.jpg,2.168,67.0,-0.8908405507027573,0.3895430207798672
778,V1,d09142021,Pj09s,rating,58.0,9.0,Klind1.jpg,2.475,93.0,-0.2082012735605324,1.6797492042545863
779,V1,d09142021,Pj09s,rating,59.0,38.0,Krasa1.jpg,2.886,56.0,0.7056903971412738,-0.15631344145943707
780,V1,d09172021,MlgU9,rating,0.0,15.0,Lassc1.jpg,4.127,33.0,-0.13892063021058113,-1.9632637271343545
781,V1,d09172021,MlgU9,rating,1.0,8.0,Picd1n.jpg,2.485,67.0,-0.33534786571650776,1.442397840343607
782,V1,d09172021,MlgU9,rating,2.0,49.0,Lewc1n.jpg,2.3080000000000003,36.0,-0.35652181254022824,-1.6627641770627697
783,V1,d09172021,MlgU9,rating,3.0,67.0,Picab1.jpg,2.64,50.0,-0.3168057088934757,-0.26043294339537365
784,V1,d09172021,MlgU9,rating,4.0,34.0,Lasb1n.jpg,2.329,51.0,-0.3540096493577529,-0.1602664267048454
785,V1,d09172021,MlgU9,rating,5.0,63.0,Lewia1.jpg,2.125,31.0,-0.3784135202732273,-2.1635967605154107
786,V1,d09172021,MlgU9,rating,6.0,20.0,Picb1n.jpg,2.2159999999999997,58.0,-0.3675274798158343,0.5408991901288526
787,V1,d09172021,MlgU9,rating,7.0,3.0,Klib1n.jpg,3.1260000000000003,68.0,-0.25866707524190424,1.5425643570341352
788,V1,d09172021,MlgU9,rating,8.0,46.0,Lewb1n.jpg,3.387,50.0,-0.2274444756882825,-0.26043294339537365
789,V1,d09172021,MlgU9,rating,9.0,51.0,Lewic1.jpg,2.556,37.0,-0.3268543616233769,-1.5625976603722411
790,V1,d09172021,MlgU9,rating,10.0,6.0,Gusc1n.jpg,3.58,63.0,-0.20435649977315226,1.0417317735814942
791,V1,d09172021,MlgU9,rating,11.0,65.0,Roha1n.jpg,2.753,51.0,-0.30328787843539423,-0.1602664267048454
792,V1,d09172021,MlgU9,rating,12.0,28.0,Pice1n.jpg,7.94,66.0,0.31721642763600744,1.3422313236530787
793,V1,d09172021,MlgU9,rating,13.0,44.0,Mackb1.jpg,3.471,50.0,-0.21739582295838125,-0.26043294339537365
794,V1,d09172021,MlgU9,rating,14.0,60.0,Kupc1n.jpg,12.883,60.0,0.90853179006341,0.7412322235099091
795,V1,d09172021,MlgU9,rating,15.0,9.0,Klind1.jpg,10.061,64.0,0.5709449090660137,1.1418982902720225
796,V1,d09172021,MlgU9,rating,16.0,40.0,Vinc1n.jpg,2.5789999999999997,62.0,-0.3241029448044754,0.9415652568909656
797,V1,d09172021,MlgU9,rating,17.0,24.0,Lewa1n.jpg,2.3280000000000003,40.0,-0.3541292761759661,-1.2620981103006563
798,V1,d09172021,MlgU9,rating,18.0,41.0,Picae1.jpg,2.557,64.0,-0.32673473480516385,1.1418982902720225
799,V1,d09172021,MlgU9,rating,19.0,29.0,Klinb1.jpg,2.124,62.0,-0.3785331470914405,0.9415652568909656
800,V1,d09172021,MlgU9,rating,20.0,0.0,Monb1n.jpg,2.6830000000000003,51.0,-0.311661755710312,-0.1602664267048454
801,V1,d09172021,MlgU9,rating,21.0,18.0,Krab1n.jpg,3.592,64.0,-0.20292097795459496,1.1418982902720225
802,V1,d09172021,MlgU9,rating,22.0,37.0,Deka1n.jpg,3.833,54.0,-0.17409091476523542,0.14023312336673946
803,V1,d09172021,MlgU9,rating,23.0,17.0,Picaa1.jpg,2.523,60.0,-0.33080204662440954,0.7412322235099091
804,V1,d09172021,MlgU9,rating,24.0,47.0,Vina1n.jpg,5.4479999999999995,49.0,0.019106396648937284,-0.3605994600859019
805,V1,d09172021,MlgU9,rating,25.0,68.0,Mondb1.jpg,5.7989999999999995,59.0,0.0610954098417389,0.6410657068193808
806,V1,d09172021,MlgU9,rating,26.0,62.0,Mona1n.jpg,2.5069999999999997,64.0,-0.3327160757158193,1.1418982902720225
807,V1,d09172021,MlgU9,rating,27.0,11.0,Clifa1.jpg,6.547999999999999,65.0,0.15069589668335825,1.2420648069625504
808,V1,d09172021,MlgU9,rating,28.0,43.0,Clifb1.jpg,2.727,58.0,-0.3063981757089351,0.5408991901288526
809,V1,d09172021,MlgU9,rating,29.0,25.0,Dekob1.jpg,2.7689999999999997,56.0,-0.3013738493439845,0.340566156747796
810,V1,d09172021,MlgU9,rating,30.0,66.0,Vinca1.jpg,6.254,59.0,0.11552561212870385,0.6410657068193808
811,V1,d09172021,MlgU9,rating,31.0,22.0,Klina1.jpg,3.3289999999999997,58.0,-0.2343828311446429,0.5408991901288526
812,V1,d09172021,MlgU9,rating,32.0,36.0,Gustb1.jpg,3.762,22.0,-0.18258441885836627,-3.0650954107301653
813,V1,d09172021,MlgU9,rating,33.0,48.0,Maca1n.jpg,3.41,54.0,-0.22469305886938096,0.14023312336673946
814,V1,d09172021,MlgU9,rating,34.0,69.0,Picad1.jpg,35.986999999999995,59.0,3.672389798059105,0.6410657068193808
815,V1,d09172021,MlgU9,rating,35.0,14.0,Grib1n.jpg,3.049,38.0,-0.2678783402443137,-1.462431143681713
816,V1,d09172021,MlgU9,rating,36.0,26.0,Klid1n.jpg,2.22,50.0,-0.36704897254298186,-0.26043294339537365
817,V1,d09172021,MlgU9,rating,37.0,38.0,Krasa1.jpg,8.613,50.0,0.3977252762934304,-0.26043294339537365
818,V1,d09172021,MlgU9,rating,38.0,16.0,Vincc1.jpg,2.29,50.0,-0.3586750952680642,-0.26043294339537365
819,V1,d09172021,MlgU9,rating,39.0,59.0,Macka1.jpg,57.64,62.0,6.262669292827575,0.9415652568909656
820,V1,d09172021,MlgU9,rating,40.0,57.0,Lassa1.jpg,10.082,50.0,0.5734570722484892,-0.26043294339537365
821,V1,d09172021,MlgU9,rating,41.0,31.0,Picac1.jpg,2.613,64.0,-0.3200356329852297,1.1418982902720225
822,V1,d09172021,MlgU9,rating,42.0,2.0,Dekb1n.jpg,2.674,55.0,-0.31273839707423,0.2403996400572677
823,V1,d09172021,MlgU9,rating,43.0,64.0,Vincb1.jpg,3.062,46.0,-0.2663231916075433,-0.6610990101574867
824,V1,d09172021,MlgU9,rating,44.0,53.0,Macc1n.jpg,2.0909999999999997,54.0,-0.3824808320924731,0.14023312336673946
825,V1,d09172021,MlgU9,rating,45.0,19.0,Picc1n.jpg,2.109,54.0,-0.3803275493646371,0.14023312336673946
826,V1,d09172021,MlgU9,rating,46.0,7.0,Macb1n.jpg,2.653,50.0,-0.3152505602567053,-0.26043294339537365
827,V1,d09172021,MlgU9,rating,47.0,4.0,Krasb1.jpg,2.681,44.0,-0.3119010093467382,-0.8614320435385433
828,V1,d09172021,MlgU9,rating,48.0,30.0,Kraa1n.jpg,2.408,44.0,-0.34455913071891725,-0.8614320435385433
829,V1,d09172021,MlgU9,rating,49.0,32.0,Kupkb1.jpg,3.8710000000000004,44.0,-0.16954509567313727,-0.8614320435385433
830,V1,d09172021,MlgU9,rating,50.0,50.0,Klic1n.jpg,3.5039999999999996,41.0,-0.21344813795734865,-1.1619315936101282
831,V1,d09172021,MlgU9,rating,51.0,33.0,Kline1.jpg,4.138,44.0,-0.1376047352102369,-0.8614320435385433
832,V1,d09172021,MlgU9,rating,52.0,23.0,Rohlb1.jpg,2.042,43.0,-0.3883425461849155,-0.9615985602290716
833,V1,d09172021,MlgU9,rating,53.0,1.0,Monda1.jpg,4.052,60.0,-0.1478926415765644,0.7412322235099091
834,V1,d09172021,MlgU9,rating,54.0,10.0,Vinb1n.jpg,2.398,44.0,-0.3457553989010483,-0.8614320435385433
835,V1,d09172021,MlgU9,rating,55.0,52.0,Dekoa1.jpg,5.568,56.0,0.033461614834510385,0.340566156747796
836,V1,d09172021,MlgU9,rating,56.0,12.0,Klie1n.jpg,2.7680000000000002,44.0,-0.3014934761621976,-0.8614320435385433
837,V1,d09172021,MlgU9,rating,57.0,54.0,Rohla1.jpg,3.455,65.0,-0.21930985204979106,1.2420648069625504
838,V1,d09172021,MlgU9,rating,58.0,21.0,Kupkc1.jpg,2.6189999999999998,59.0,-0.31931787207595097,0.6410657068193808
839,V1,d09172021,MlgU9,rating,59.0,55.0,Clia1n.jpg,9.951,50.0,0.5577859590625717,-0.26043294339537365
840,V1,d09142021,OKSBe,rating,0.0,58.0,Klinc1.jpg,4.353,39.0,0.12257960834405884,-0.8349378662429777
841,V1,d09142021,OKSBe,rating,1.0,33.0,Kline1.jpg,2.093,41.0,-0.24359568060918024,-0.6948084341462542
842,V1,d09142021,OKSBe,rating,2.0,9.0,Klind1.jpg,2.28,67.0,-0.21329710581526184,1.1268741831111522
843,V1,d09142021,OKSBe,rating,3.0,27.0,Gustc1.jpg,2.93,22.0,-0.10798120412517086,-2.0260380390651282
844,V1,d09142021,OKSBe,rating,4.0,3.0,Klib1n.jpg,1.98,37.0,-0.2619044450568422,-0.9750672983397012
845,V1,d09142021,OKSBe,rating,5.0,10.0,Vinb1n.jpg,2.344,71.0,-0.20292754011039127,1.407133047304599
846,V1,d09142021,OKSBe,rating,6.0,60.0,Kupc1n.jpg,2.209,73.0,-0.22480084276910248,1.5472624794013228
847,V1,d09142021,OKSBe,rating,7.0,69.0,Picad1.jpg,2.097,51.0,-0.24294758275262585,0.005838726337363647
848,V1,d09142021,OKSBe,rating,8.0,68.0,Mondb1.jpg,2.461,28.0,-0.18397067780617496,-1.6056497427749572
849,V1,d09142021,OKSBe,rating,9.0,52.0,Dekoa1.jpg,3.9,37.0,0.04918252608927245,-0.9750672983397012
850,V1,d09142021,OKSBe,rating,10.0,62.0,Mona1n.jpg,2.258,50.0,-0.216861644026311,-0.06422598971099812
851,V1,d09142021,OKSBe,rating,11.0,56.0,Clib1n.jpg,2.714,45.0,-0.1429784883791088,-0.414549569952807
852,V1,d09142021,OKSBe,rating,12.0,38.0,Krasa1.jpg,2.247,46.0,-0.21864391313183565,-0.3444848539044452
853,V1,d09142021,OKSBe,rating,13.0,25.0,Dekob1.jpg,2.761,50.0,-0.13536333856459448,-0.06422598971099812
854,V1,d09142021,OKSBe,rating,14.0,61.0,Grigb1.jpg,2.6289999999999996,65.0,-0.1567505678308899,0.9867447510144284
855,V1,d09142021,OKSBe,rating,15.0,40.0,Vinc1n.jpg,3.16,30.0,-0.07071557737329254,-1.4655203106782335
856,V1,d09142021,OKSBe,rating,16.0,44.0,Mackb1.jpg,4.315,45.0,0.1164226787067921,-0.414549569952807
857,V1,d09142021,OKSBe,rating,17.0,20.0,Picb1n.jpg,2.384,50.0,-0.19644656154484724,-0.06422598971099812
858,V1,d09142021,OKSBe,rating,18.0,21.0,Kupkc1.jpg,1.8619999999999999,70.0,-0.2810233318251971,1.3370683312562377
859,V1,d09142021,OKSBe,rating,19.0,64.0,Vincb1.jpg,3.083,39.0,-0.08319146111196482,-0.8349378662429777
860,V1,d09142021,OKSBe,rating,20.0,29.0,Klinb1.jpg,2.076,50.0,-0.2463500964995365,-0.06422598971099812
861,V1,d09142021,OKSBe,rating,21.0,47.0,Vina1n.jpg,4.842,62.0,0.20180957130783486,0.7765506028693432
862,V1,d09142021,OKSBe,rating,22.0,48.0,Maca1n.jpg,10.054,29.0,1.0462810783982257,-1.5355850267265956
863,V1,d09142021,OKSBe,rating,23.0,0.0,Monb1n.jpg,1.9680000000000002,35.0,-0.26384873862650543,-1.1151967304364248
864,V1,d09142021,OKSBe,rating,24.0,54.0,Rohla1.jpg,4.687,64.0,0.1766957793663518,0.9166800349660668
865,V1,d09142021,OKSBe,rating,25.0,19.0,Picc1n.jpg,2.162,73.0,-0.23241599258361675,1.5472624794013228
866,V1,d09142021,OKSBe,rating,26.0,18.0,Krab1n.jpg,2.046,50.0,-0.2512108304236945,-0.06422598971099812
867,V1,d09142021,OKSBe,rating,27.0,67.0,Picab1.jpg,2.08,53.0,-0.24570199864298206,0.1459681584340872
868,V1,d09142021,OKSBe,rating,28.0,1.0,Monda1.jpg,1.974,74.0,-0.26287659184167383,1.6173271954496846
869,V1,d09142021,OKSBe,rating,29.0,23.0,Rohlb1.jpg,1.921,70.0,-0.27146388844101965,1.3370683312562377
870,V1,d09142021,OKSBe,rating,30.0,55.0,Clia1n.jpg,2.276,34.0,-0.2139452036718162,-1.1852614464847866
871,V1,d09142021,OKSBe,rating,31.0,34.0,Lasb1n.jpg,1.693,57.0,-0.3084054662646208,0.4262270226275343
872,V1,d09142021,OKSBe,rating,32.0,11.0,Clifa1.jpg,2.819,43.0,-0.12596591964455564,-0.5546790020495306
873,V1,d09142021,OKSBe,rating,33.0,2.0,Dekb1n.jpg,2.628,50.0,-0.1569125922950285,-0.06422598971099812
874,V1,d09142021,OKSBe,rating,34.0,15.0,Lassc1.jpg,2.6519999999999997,39.0,-0.15302400515570205,-0.8349378662429777
875,V1,d09142021,OKSBe,rating,35.0,26.0,Klid1n.jpg,0.305,50.0,-0.5332954224889995,-0.06422598971099812
876,V1,d09142021,OKSBe,rating,36.0,63.0,Lewia1.jpg,3.49,55.0,-0.017247504207554068,0.28609759053081074
877,V1,d09142021,OKSBe,rating,37.0,32.0,Kupkb1.jpg,3.588,36.0,-0.0013691067219711568,-1.045132014388063
878,V1,d09142021,OKSBe,rating,38.0,24.0,Lewa1n.jpg,2.4859999999999998,46.0,-0.17992006620270987,-0.3444848539044452
879,V1,d09142021,OKSBe,rating,39.0,43.0,Clifb1.jpg,2.6510000000000002,76.0,-0.1531860296198407,1.757456627546408
880,V1,d09142021,OKSBe,rating,40.0,46.0,Lewb1n.jpg,2.218,37.0,-0.22334262259185508,-0.9750672983397012
881,V1,d09142021,OKSBe,rating,41.0,5.0,Pica1n.jpg,2.332,71.0,-0.20487183368005452,1.407133047304599
882,V1,d09142021,OKSBe,rating,42.0,35.0,Gusa1n.jpg,4.136,33.0,0.08742029962598241,-1.2553261625331484
883,V1,d09142021,OKSBe,rating,43.0,17.0,Picaa1.jpg,3.158,63.0,-0.07103962630156978,0.8466153189177049
884,V1,d09142021,OKSBe,rating,44.0,31.0,Picac1.jpg,2.367,72.0,-0.19920097743520346,1.477197763352961
885,V1,d09142021,OKSBe,rating,45.0,45.0,Lasc1n.jpg,2.628,32.0,-0.1569125922950285,-1.32539087858151
886,V1,d09142021,OKSBe,rating,46.0,53.0,Macc1n.jpg,2.338,66.0,-0.2038996868952229,1.0568094670627903
887,V1,d09142021,OKSBe,rating,47.0,51.0,Lewic1.jpg,2.84,67.0,-0.12256340589764506,1.1268741831111522
888,V1,d09142021,OKSBe,rating,48.0,13.0,Kupka1.jpg,2.012,44.0,-0.2567196622044069,-0.4846142860011688
889,V1,d09142021,OKSBe,rating,49.0,59.0,Macka1.jpg,2.146,42.0,-0.2350083840098344,-0.6247437180978923
890,V1,d09142021,OKSBe,rating,50.0,30.0,Kraa1n.jpg,1.953,70.0,-0.2662791055885844,1.3370683312562377
891,V1,d09142021,OKSBe,rating,51.0,39.0,Kupb1n.jpg,2.27,44.0,-0.21491735045664775,-0.4846142860011688
892,V1,d09142021,OKSBe,rating,52.0,22.0,Klina1.jpg,1.755,39.0,-0.2983599494880275,-0.8349378662429777
893,V1,d09142021,OKSBe,rating,53.0,49.0,Lewc1n.jpg,2.408,34.0,-0.1925579744055208,-1.1852614464847866
894,V1,d09142021,OKSBe,rating,54.0,42.0,Mackc1.jpg,2.504,63.0,-0.17700362584821508,0.8466153189177049
895,V1,d09142021,OKSBe,rating,55.0,8.0,Picd1n.jpg,2.136,65.0,-0.2366286286512204,0.9867447510144284
896,V1,d09142021,OKSBe,rating,56.0,57.0,Lassa1.jpg,2.312,54.0,-0.20811232296282656,0.21603287448244896
897,V1,d09142021,OKSBe,rating,57.0,37.0,Deka1n.jpg,48.895,50.0,7.339473290005642,-0.06422598971099812
898,V1,d09142021,OKSBe,rating,58.0,4.0,Krasb1.jpg,1.821,46.0,-0.2876663348548798,-0.3444848539044452
899,V1,d09142021,OKSBe,rating,59.0,41.0,Picae1.jpg,11.1,61.0,1.2157586678872023,0.7064858868209815
900,V1,d09142021,DyHLP,rating,0.0,41.0,Picae1.jpg,5.568,75.0,1.944045689661784,1.2089443601121477
901,V1,d09142021,DyHLP,rating,1.0,62.0,Mona1n.jpg,3.656,28.0,0.08954065038821682,-0.27526247293802936
902,V1,d09142021,DyHLP,rating,2.0,29.0,Klinb1.jpg,3.417,12.0,-0.14227247952097946,-0.7805243735508556
903,V1,d09142021,DyHLP,rating,3.0,25.0,Dekob1.jpg,3.4139999999999997,0.0,-0.14518226776251714,-1.1594707990104751
904,V1,d09142021,DyHLP,rating,4.0,54.0,Rohla1.jpg,3.786,55.0,0.2156314741881978,0.5773669843461149
905,V1,d09142021,DyHLP,rating,5.0,5.0,Pica1n.jpg,2.394,0.0,-1.1345102698854457,-1.1594707990104751
906,V1,d09142021,DyHLP,rating,6.0,55.0,Clia1n.jpg,3.569,0.0,0.005156791383613935,-1.1594707990104751
907,V1,d09142021,DyHLP,rating,7.0,51.0,Lewic1.jpg,2.5810000000000004,0.0,-0.9531334694962422,-1.1594707990104751
908,V1,d09142021,DyHLP,rating,8.0,23.0,Rohlb1.jpg,4.345,100.0,0.7578220165281162,1.9984160798196888
909,V1,d09142021,DyHLP,rating,9.0,34.0,Lasb1n.jpg,3.353,54.0,-0.2043479620071236,0.5457881155578133
910,V1,d09142021,DyHLP,rating,10.0,17.0,Picaa1.jpg,2.211,0.0,-1.3120073526192657,-1.1594707990104751
911,V1,d09142021,DyHLP,rating,11.0,15.0,Lassc1.jpg,2.623,0.0,-0.9123964341147096,-1.1594707990104751
912,V1,d09142021,DyHLP,rating,12.0,52.0,Dekoa1.jpg,3.005,0.0,-0.5418833980255348,-1.1594707990104751
913,V1,d09142021,DyHLP,rating,13.0,37.0,Deka1n.jpg,2.638,42.0,-0.8978474929070198,0.1668416900981936
914,V1,d09142021,DyHLP,rating,14.0,8.0,Picd1n.jpg,5.33,51.0,1.7132024891664346,0.4510515091929084
915,V1,d09142021,DyHLP,rating,15.0,22.0,Klina1.jpg,3.055,21.0,-0.4933869273332341,-0.4963145544561408
916,V1,d09142021,DyHLP,rating,16.0,4.0,Krasb1.jpg,2.9019999999999997,0.0,-0.6417861276516734,-1.1594707990104751
917,V1,d09142021,DyHLP,rating,17.0,42.0,Mackc1.jpg,5.188,16.0,1.575472512400301,-0.6542088983976491
918,V1,d09142021,DyHLP,rating,18.0,68.0,Mondb1.jpg,2.2119999999999997,50.0,-1.3110374232054192,0.4194726404046067
919,V1,d09142021,DyHLP,rating,19.0,67.0,Picab1.jpg,3.8480000000000003,0.0,0.27576709784665016,-1.1594707990104751
920,V1,d09142021,DyHLP,rating,20.0,27.0,Gustc1.jpg,5.532,72.0,1.9091282307633284,1.1142077537472428
921,V1,d09142021,DyHLP,rating,21.0,39.0,Kupb1n.jpg,3.68,60.0,0.11281895632052105,0.7352613282876231
922,V1,d09142021,DyHLP,rating,22.0,66.0,Vinca1.jpg,3.906,24.0,0.3320230038497189,-0.4015779480912359
923,V1,d09142021,DyHLP,rating,23.0,31.0,Picac1.jpg,2.906,0.0,-0.6379064099962893,-1.1594707990104751
924,V1,d09142021,DyHLP,rating,24.0,1.0,Monda1.jpg,4.691,50.0,1.093417593718835,0.4194726404046067
925,V1,d09142021,DyHLP,rating,25.0,9.0,Klind1.jpg,3.687,63.0,0.1196084622174428,0.829997934652528
926,V1,d09142021,DyHLP,rating,26.0,3.0,Klib1n.jpg,4.272,0.0,0.6870171693173578,-1.1594707990104751
927,V1,d09142021,DyHLP,rating,27.0,49.0,Lewc1n.jpg,2.951,0.0,-0.5942595863732191,-1.1594707990104751
928,V1,d09142021,DyHLP,rating,28.0,32.0,Kupkb1.jpg,2.559,50.0,-0.9744719166008542,0.4194726404046067
929,V1,d09142021,DyHLP,rating,29.0,21.0,Kupkc1.jpg,3.2319999999999998,27.0,-0.3217094210824906,-0.306841341726331
930,V1,d09142021,DyHLP,rating,30.0,60.0,Kupc1n.jpg,2.668,58.0,-0.8687496104916393,0.6721035907110198
931,V1,d09142021,DyHLP,rating,31.0,16.0,Vincc1.jpg,4.204,100.0,0.621061969175829,1.9984160798196888
932,V1,d09142021,DyHLP,rating,32.0,53.0,Macc1n.jpg,2.6289999999999996,62.0,-0.9065768576316338,0.7984190658642264
933,V1,d09142021,DyHLP,rating,33.0,14.0,Grib1n.jpg,2.903,54.0,-0.6408161982378275,0.5457881155578133
934,V1,d09142021,DyHLP,rating,34.0,40.0,Vinc1n.jpg,3.863,32.0,0.2903160390543404,-0.1489469977848228
935,V1,d09142021,DyHLP,rating,35.0,63.0,Lewia1.jpg,3.0260000000000002,100.0,-0.5215148803347687,1.9984160798196888
936,V1,d09142021,DyHLP,rating,36.0,56.0,Clib1n.jpg,4.7589999999999995,65.0,1.1593727938603642,0.8931556722291313
937,V1,d09142021,DyHLP,rating,37.0,6.0,Gusc1n.jpg,3.26,37.0,-0.2945513974948028,0.008947346156685404
938,V1,d09142021,DyHLP,rating,38.0,48.0,Maca1n.jpg,6.405,100.0,2.755876609050894,1.9984160798196888
939,V1,d09142021,DyHLP,rating,39.0,46.0,Lewb1n.jpg,4.18,44.0,0.5977836632435247,0.2299994276747969
940,V1,d09142021,DyHLP,rating,40.0,26.0,Klid1n.jpg,5.388,82.0,1.7694583951695029,1.429996441630259
941,V1,d09142021,DyHLP,rating,41.0,11.0,Clifa1.jpg,3.2439999999999998,56.0,-0.3100702681163385,0.6089458531344165
942,V1,d09142021,DyHLP,rating,42.0,7.0,Macb1n.jpg,2.454,55.0,-1.0763145050546852,0.5773669843461149
943,V1,d09142021,DyHLP,rating,43.0,18.0,Krab1n.jpg,4.355,50.0,0.7675213106665769,0.4194726404046067
944,V1,d09142021,DyHLP,rating,44.0,0.0,Monb1n.jpg,4.6419999999999995,14.0,1.0458910524403813,-0.7173666359742523
945,V1,d09142021,DyHLP,rating,45.0,36.0,Gustb1.jpg,6.154,0.0,2.512424326175545,-1.1594707990104751
946,V1,d09142021,DyHLP,rating,46.0,10.0,Vinb1n.jpg,2.56,0.0,-0.9735019871870084,-1.1594707990104751
947,V1,d09142021,DyHLP,rating,47.0,13.0,Kupka1.jpg,2.407,0.0,-1.1219011875054477,-1.1594707990104751
948,V1,d09142021,DyHLP,rating,48.0,65.0,Roha1n.jpg,3.775,60.0,0.2049622506358916,0.7352613282876231
949,V1,d09142021,DyHLP,rating,49.0,59.0,Macka1.jpg,2.591,65.0,-0.943434175357782,0.8931556722291313
950,V1,d09142021,DyHLP,rating,50.0,47.0,Vina1n.jpg,2.795,0.0,-0.7455685749331965,-1.1594707990104751
951,V1,d09142021,DyHLP,rating,51.0,57.0,Lassa1.jpg,2.594,0.0,-0.9405243871162442,-1.1594707990104751
952,V1,d09142021,DyHLP,rating,52.0,12.0,Klie1n.jpg,2.576,72.0,-0.9579831165654722,1.1142077537472428
953,V1,d09142021,DyHLP,rating,53.0,58.0,Klinc1.jpg,3.176,62.0,-0.3760254682578672,0.7984190658642264
954,V1,d09142021,DyHLP,rating,54.0,35.0,Gusa1n.jpg,4.364,0.0,0.7762506753911904,-1.1594707990104751
955,V1,d09142021,DyHLP,rating,55.0,64.0,Vincb1.jpg,3.375,69.0,-0.18300951490251166,1.0194711473823381
956,V1,d09142021,DyHLP,rating,56.0,19.0,Picc1n.jpg,3.478,56.0,-0.08310678527637258,0.6089458531344165
957,V1,d09142021,DyHLP,rating,57.0,43.0,Clifb1.jpg,4.24,22.0,0.6559794280742858,-0.4647356856678392
958,V1,d09142021,DyHLP,rating,58.0,44.0,Mackb1.jpg,3.214,38.0,-0.339168150531719,0.04052621494498705
959,V1,d09142021,DyHLP,rating,59.0,2.0,Dekb1n.jpg,2.031,0.0,-1.4865946471115463,-1.1594707990104751
960,V1,d09172021,ARlDu,rating,0.0,44.0,Mackb1.jpg,3.7510000000000003,58.0,1.0155732996420694,0.3161760022196404
961,V1,d09172021,ARlDu,rating,1.0,60.0,Kupc1n.jpg,3.15,58.0,0.39967062246257057,0.3161760022196404
962,V1,d09172021,ARlDu,rating,2.0,35.0,Gusa1n.jpg,3.6010000000000004,87.0,0.861853829464158,1.5414460330930797
963,V1,d09172021,ARlDu,rating,3.0,0.0,Monb1n.jpg,3.114,44.0,0.36277794961987175,-0.2753336678571923
964,V1,d09172021,ARlDu,rating,4.0,6.0,Gusc1n.jpg,4.2780000000000005,22.0,1.5556410382004648,-1.204848863692215
965,V1,d09172021,ARlDu,rating,5.0,22.0,Klina1.jpg,2.325,41.0,-0.4457864635159426,-0.4020857400165136
966,V1,d09172021,ARlDu,rating,6.0,47.0,Vina1n.jpg,2.7710000000000004,87.0,0.011272761146380756,1.5414460330930797
967,V1,d09172021,ARlDu,rating,7.0,28.0,Pice1n.jpg,2.906,91.0,0.14962028430650134,1.7104487959721746
968,V1,d09172021,ARlDu,rating,8.0,34.0,Lasb1n.jpg,3.245,56.0,0.4970262869085814,0.23167462078009285
969,V1,d09172021,ARlDu,rating,9.0,4.0,Krasb1.jpg,2.602,16.0,-0.16191784192073294,-1.4583530080108578
970,V1,d09172021,ARlDu,rating,10.0,7.0,Macb1n.jpg,2.339,39.0,-0.4314393129660044,-0.4865871214560611
971,V1,d09172021,ARlDu,rating,11.0,58.0,Klinc1.jpg,1.963,50.0,-0.8167627848786359,-0.021829523538549736
972,V1,d09172021,ARlDu,rating,12.0,3.0,Klib1n.jpg,2.365,56.0,-0.4047946048018328,0.23167462078009285
973,V1,d09172021,ARlDu,rating,13.0,49.0,Lewc1n.jpg,3.091,0.0,0.339207630859259,-2.134364059527238
974,V1,d09172021,ARlDu,rating,14.0,69.0,Picad1.jpg,8.812000000000001,82.0,6.202068223444804,1.3301925794942109
975,V1,d09172021,ARlDu,rating,15.0,57.0,Lassa1.jpg,2.5789999999999997,41.0,-0.1854881606813457,-0.4020857400165136
976,V1,d09172021,ARlDu,rating,16.0,40.0,Vinc1n.jpg,2.387,69.0,-0.38224908250907264,0.7809336001371517
977,V1,d09172021,ARlDu,rating,17.0,51.0,Lewic1.jpg,2.8760000000000003,18.0,0.1188763902709188,-1.37385162657131
978,V1,d09172021,ARlDu,rating,18.0,65.0,Roha1n.jpg,2.4930000000000003,68.0,-0.273620656916682,0.7386829094173779
979,V1,d09172021,ARlDu,rating,19.0,37.0,Deka1n.jpg,2.697,22.0,-0.06456217747472211,-1.204848863692215
980,V1,d09172021,ARlDu,rating,20.0,30.0,Kraa1n.jpg,2.38,39.0,-0.38942265778404206,-0.4865871214560611
981,V1,d09172021,ARlDu,rating,21.0,9.0,Klind1.jpg,2.48,97.0,-0.2869430109987675,1.963952940290817
982,V1,d09172021,ARlDu,rating,22.0,36.0,Gustb1.jpg,4.05,34.0,1.3219874435300396,-0.6978405750549299
983,V1,d09172021,ARlDu,rating,23.0,43.0,Clifb1.jpg,2.161,20.0,-0.6138530842437927,-1.2893502451317629
984,V1,d09172021,ARlDu,rating,24.0,29.0,Klinb1.jpg,1.8780000000000001,54.0,-0.9038704846461192,0.14717323934054533
985,V1,d09172021,ARlDu,rating,25.0,21.0,Kupkc1.jpg,2.866,38.0,0.1086284255923916,-0.5288378121758349
986,V1,d09172021,ARlDu,rating,26.0,31.0,Picac1.jpg,3.9019999999999997,54.0,1.170317566287834,0.14717323934054533
987,V1,d09172021,ARlDu,rating,27.0,20.0,Picb1n.jpg,2.915,50.0,0.15884345251717594,-0.021829523538549736
988,V1,d09172021,ARlDu,rating,28.0,11.0,Clifa1.jpg,2.7260000000000004,65.0,-0.034843079906992626,0.6119308372580567
989,V1,d09172021,ARlDu,rating,29.0,39.0,Kupb1n.jpg,2.28,67.0,-0.4919023045693165,0.6964322186976042
990,V1,d09172021,ARlDu,rating,30.0,27.0,Gustc1.jpg,3.321,19.0,0.5749108184653899,-1.3316009358515364
991,V1,d09172021,ARlDu,rating,31.0,62.0,Mona1n.jpg,3.346,90.0,0.6005307301617084,1.6681981052524009
992,V1,d09172021,ARlDu,rating,32.0,53.0,Macc1n.jpg,2.323,42.0,-0.4478360564516483,-0.3598350492967398
993,V1,d09172021,ARlDu,rating,33.0,68.0,Mondb1.jpg,2.355,62.0,-0.4150425694803605,0.4851787650987354
994,V1,d09172021,ARlDu,rating,34.0,41.0,Picae1.jpg,2.48,97.0,-0.2869430109987675,1.963952940290817
995,V1,d09172021,ARlDu,rating,35.0,54.0,Rohla1.jpg,1.8969999999999998,96.0,-0.884399351756917,1.9217022495710436
996,V1,d09172021,ARlDu,rating,36.0,56.0,Clib1n.jpg,1.77,61.0,-1.0145485031742154,0.4429280743789616
997,V1,d09172021,ARlDu,rating,37.0,59.0,Macka1.jpg,2.154,58.0,-0.6210266595187621,0.3161760022196404
998,V1,d09172021,ARlDu,rating,38.0,19.0,Picc1n.jpg,2.533,27.0,-0.23262879820257215,-0.9935954100933464
999,V1,d09172021,ARlDu,rating,39.0,23.0,Rohlb1.jpg,2.364,44.0,-0.4058194012696859,-0.2753336678571923
1000,V1,d09172021,ARlDu,rating,40.0,12.0,Klie1n.jpg,3.353,56.0,0.6077043054366777,0.23167462078009285
1001,V1,d09172021,ARlDu,rating,41.0,26.0,Klid1n.jpg,2.07,50.0,-0.7071095628183925,-0.021829523538549736
1002,V1,d09172021,ARlDu,rating,42.0,33.0,Kline1.jpg,2.009,54.0,-0.7696221473574099,0.14717323934054533
1003,V1,d09172021,ARlDu,rating,43.0,50.0,Klic1n.jpg,2.245,58.0,-0.5277701809441622,0.3161760022196404
1004,V1,d09172021,ARlDu,rating,44.0,17.0,Picaa1.jpg,2.7430000000000003,34.0,-0.017421539953496087,-0.6978405750549299
1005,V1,d09172021,ARlDu,rating,45.0,61.0,Grigb1.jpg,2.7110000000000003,26.0,-0.05021502692478391,-1.03584610081312
1006,V1,d09172021,ARlDu,rating,46.0,1.0,Monda1.jpg,2.2769999999999997,70.0,-0.4949766939728743,0.8231842908569255
1007,V1,d09172021,ARlDu,rating,47.0,24.0,Lewa1n.jpg,2.582,37.0,-0.18241377127778785,-0.5710885028956086
1008,V1,d09172021,ARlDu,rating,48.0,55.0,Clia1n.jpg,2.773,55.0,0.013322354082086476,0.18942393006031907
1009,V1,d09172021,ARlDu,rating,49.0,10.0,Vinb1n.jpg,2.362,34.0,-0.4078689942053911,-0.6978405750549299
1010,V1,d09172021,ARlDu,rating,50.0,8.0,Picd1n.jpg,2.782,100.0,0.02254552229276106,2.0907050124501385
1011,V1,d09172021,ARlDu,rating,51.0,52.0,Dekoa1.jpg,3.437,40.0,0.6937872087363078,-0.44433643073628737
1012,V1,d09172021,ARlDu,rating,52.0,18.0,Krab1n.jpg,2.17,10.0,-0.6046299160331181,-1.7118571523295003
1013,V1,d09172021,ARlDu,rating,53.0,42.0,Mackc1.jpg,2.1719999999999997,35.0,-0.6025803230974124,-0.6555898843351562
1014,V1,d09172021,ARlDu,rating,54.0,46.0,Lewb1n.jpg,3.2060000000000004,47.0,0.4570592246623242,-0.14858159569787102
1015,V1,d09172021,ARlDu,rating,55.0,2.0,Dekb1n.jpg,1.984,15.0,-0.7952420590537284,-1.5006036987306317
1016,V1,d09172021,ARlDu,rating,56.0,63.0,Lewia1.jpg,2.525,35.0,-0.24082716994539416,-0.6555898843351562
1017,V1,d09172021,ARlDu,rating,57.0,5.0,Pica1n.jpg,1.915,35.0,-0.8659530153355676,-0.6555898843351562
1018,V1,d09172021,ARlDu,rating,58.0,32.0,Kupkb1.jpg,1.9380000000000002,57.0,-0.8423826965749546,0.2739253114998666
1019,V1,d09172021,ARlDu,rating,59.0,16.0,Vincc1.jpg,2.82,64.0,0.061487788071165124,0.5696801465382829
