,Exp,group,PID,phase,condition,block,trial,stimulus_left,stimulus_right,painting_left,painting_right,rating_left,rating_right,explain_trial,reward_type,left_chosen,chosen_obj,unchosen_obj,rt,zscored_rt,delta_ratings,zcored_rating_left,zcored_rating_right,zscored_delta_ratings
0,Pilot,d10012021,arjeO,deliberation,1.0,1.0,0.0,2.0,36.0,Dekob1.jpg,Gorkf1.jpg,36.0,26.0,1.0,1.0,0.0,36.0,2.0,1.89,0.005524820590775037,10.0,-0.5031128953919681,-0.939337949200033,0.43622505380806487
1,Pilot,d10012021,arjeO,deliberation,1.0,1.0,1.0,34.0,39.0,Monb1n.jpg,Dekb1n.jpg,17.0,63.0,1.0,-1.0,0.0,39.0,34.0,2.598,0.8183192056855569,-46.0,-1.3319404976272913,0.6746947498898072,-2.0066352475170985
2,Pilot,d10012021,arjeO,deliberation,0.0,1.0,2.0,30.0,25.0,Lasse1.jpg,Clifa1.jpg,67.0,65.0,0.0,1.0,0.0,25.0,30.0,2.047,0.18576312350021143,2.0,0.8491847714130331,0.7619397606514201,0.08724501076161295
3,Pilot,d10012021,arjeO,deliberation,1.0,1.0,3.0,41.0,53.0,Vincb1.jpg,Gorka1.jpg,46.0,60.0,1.0,-1.0,1.0,41.0,53.0,4.519,3.0236553833226703,-14.0,-0.0668878415839032,0.5438272337473876,-0.6107150753312908
4,Pilot,d10012021,arjeO,deliberation,0.0,1.0,4.0,8.0,35.0,Klina1.jpg,Wdeka1.jpg,57.0,35.0,0.0,-1.0,1.0,8.0,35.0,3.189,1.4967958745994216,22.0,0.4129597176049682,-0.5467354007727746,0.9596951183777428
5,Pilot,d10012021,arjeO,deliberation,1.0,1.0,5.0,4.0,46.0,Mackb1.jpg,Deka1n.jpg,46.0,55.0,1.0,1.0,1.0,4.0,46.0,3.323,1.6506298401399593,-9.0,-0.0668878415839032,0.3257147068433552,-0.3926025484272584
6,Pilot,d10012021,arjeO,deliberation,1.0,1.0,6.0,31.0,47.0,Maca1n.jpg,Kupkd1.jpg,65.0,55.0,1.0,1.0,0.0,47.0,31.0,2.833,1.088102652715605,10.0,0.7619397606514201,0.3257147068433552,0.4362250538080649
7,Pilot,d10012021,arjeO,deliberation,1.0,1.0,7.0,56.0,59.0,Luisc1.jpg,Kraa1n.jpg,44.0,64.0,1.0,1.0,1.0,56.0,59.0,1.861,-0.02776760478740096,-20.0,-0.15413285234551619,0.7183172552706136,-0.8724501076161298
8,Pilot,d10012021,arjeO,deliberation,0.0,1.0,8.0,5.0,33.0,Kupb1n.jpg,Kupc1n.jpg,62.0,52.0,0.0,1.0,1.0,5.0,33.0,2.751,0.9939654499221412,10.0,0.6310722445090006,0.19484719070093573,0.43622505380806487
9,Pilot,d10012021,arjeO,deliberation,1.0,1.0,9.0,32.0,29.0,Macka1.jpg,Clifb1.jpg,56.0,31.0,1.0,-1.0,1.0,32.0,29.0,2.382,0.5703480373515559,25.0,0.36933721222416166,-0.7212254222960005,1.0905626345201622
10,Pilot,d10012021,arjeO,deliberation,1.0,1.0,10.0,44.0,19.0,Lassf1.jpg,Macc1n.jpg,64.0,65.0,1.0,-1.0,0.0,19.0,44.0,1.51,-0.430720753330153,-1.0,0.7183172552706136,0.7619397606514201,-0.043622505380806476
11,Pilot,d10012021,arjeO,deliberation,0.0,1.0,11.0,14.0,48.0,Kupkb1.jpg,Picb1n.jpg,43.0,58.0,0.0,-1.0,0.0,48.0,14.0,2.286,0.4601386292031108,-15.0,-0.19775535772632266,0.45658222298577467,-0.6543375807120974
12,Pilot,d10012021,arjeO,deliberation,0.0,1.0,12.0,45.0,40.0,Klia1n.jpg,Krab1n.jpg,45.0,29.0,0.0,1.0,1.0,45.0,40.0,1.894,0.010116879263626916,16.0,-0.11051034696470968,-0.8084704330576135,0.6979600860929038
13,Pilot,d10012021,arjeO,deliberation,0.0,1.0,13.0,7.0,57.0,Pica1n.jpg,Lewc1n.jpg,67.0,22.0,0.0,1.0,1.0,7.0,57.0,1.528,-0.4100564893023195,45.0,0.8491847714130331,-1.113827970723259,1.963012742136292
14,Pilot,d10012021,arjeO,deliberation,0.0,1.0,14.0,21.0,49.0,Lewb1n.jpg,Hinda1.jpg,58.0,66.0,0.0,-1.0,0.0,49.0,21.0,2.81,1.0616983153467066,-8.0,0.45658222298577467,0.8055622660322266,-0.3489800430464519
15,Pilot,d10012021,arjeO,deliberation,0.0,1.0,15.0,16.0,12.0,Lewa1n.jpg,Kupkc1.jpg,37.0,65.0,0.0,-1.0,0.0,12.0,16.0,1.698,-0.21489399570611492,-28.0,-0.4594903900111616,0.7619397606514201,-1.2214301506625818
16,Pilot,d10012021,arjeO,deliberation,0.0,2.0,16.0,16.0,12.0,Lewa1n.jpg,Kupkc1.jpg,37.0,65.0,1.0,-1.0,0.0,12.0,16.0,1.06,-0.9473273540259889,-28.0,-0.4594903900111616,0.7619397606514201,-1.2214301506625818
17,Pilot,d10012021,arjeO,deliberation,0.0,2.0,17.0,14.0,48.0,Kupkb1.jpg,Picb1n.jpg,43.0,58.0,1.0,-1.0,0.0,48.0,14.0,2.375,0.562311934674065,-15.0,-0.19775535772632266,0.45658222298577467,-0.6543375807120974
18,Pilot,d10012021,arjeO,deliberation,1.0,2.0,18.0,34.0,39.0,Monb1n.jpg,Dekb1n.jpg,17.0,63.0,0.0,-1.0,1.0,34.0,39.0,0.25,-1.8772192352784938,-46.0,-1.3319404976272913,0.6746947498898072,-2.0066352475170985
19,Pilot,d10012021,arjeO,deliberation,0.0,2.0,19.0,45.0,40.0,Klia1n.jpg,Krab1n.jpg,45.0,29.0,1.0,1.0,0.0,40.0,45.0,3.779,2.174124528845073,16.0,-0.11051034696470968,-0.8084704330576135,0.6979600860929038
20,Pilot,d10012021,arjeO,deliberation,0.0,2.0,20.0,7.0,57.0,Pica1n.jpg,Lewc1n.jpg,67.0,22.0,1.0,1.0,1.0,7.0,57.0,1.429,-0.5237099414554034,45.0,0.8491847714130331,-1.113827970723259,1.963012742136292
21,Pilot,d10012021,arjeO,deliberation,0.0,2.0,21.0,5.0,33.0,Kupb1n.jpg,Kupc1n.jpg,62.0,52.0,1.0,1.0,1.0,5.0,33.0,2.872,1.1328752247759104,10.0,0.6310722445090006,0.19484719070093573,0.43622505380806487
22,Pilot,d10012021,arjeO,deliberation,0.0,2.0,22.0,21.0,49.0,Lewb1n.jpg,Hinda1.jpg,58.0,66.0,1.0,-1.0,0.0,49.0,21.0,2.257,0.4268462038249348,-8.0,0.45658222298577467,0.8055622660322266,-0.3489800430464519
23,Pilot,d10012021,arjeO,deliberation,1.0,2.0,23.0,31.0,47.0,Maca1n.jpg,Kupkd1.jpg,65.0,55.0,0.0,1.0,0.0,47.0,31.0,3.934,2.3520668024180837,10.0,0.7619397606514201,0.3257147068433552,0.4362250538080649
24,Pilot,d10012021,arjeO,deliberation,1.0,2.0,24.0,2.0,36.0,Dekob1.jpg,Gorkf1.jpg,36.0,26.0,0.0,1.0,0.0,36.0,2.0,1.996,0.12721437542134983,10.0,-0.5031128953919681,-0.939337949200033,0.43622505380806487
25,Pilot,d10012021,arjeO,deliberation,1.0,2.0,25.0,41.0,53.0,Vincb1.jpg,Gorka1.jpg,46.0,60.0,0.0,-1.0,1.0,41.0,53.0,1.523,-0.4157965626433845,-14.0,-0.0668878415839032,0.5438272337473876,-0.6107150753312908
26,Pilot,d10012021,arjeO,deliberation,1.0,2.0,26.0,44.0,19.0,Lassf1.jpg,Macc1n.jpg,64.0,65.0,0.0,-1.0,0.0,19.0,44.0,1.364,-0.5983308948892463,-1.0,0.7183172552706136,0.7619397606514201,-0.043622505380806476
27,Pilot,d10012021,arjeO,deliberation,1.0,2.0,27.0,4.0,46.0,Mackb1.jpg,Deka1n.jpg,46.0,55.0,0.0,1.0,1.0,4.0,46.0,1.427,-0.5260059707918293,-9.0,-0.0668878415839032,0.3257147068433552,-0.3926025484272584
28,Pilot,d10012021,arjeO,deliberation,0.0,2.0,28.0,30.0,25.0,Lasse1.jpg,Clifa1.jpg,67.0,65.0,1.0,1.0,0.0,25.0,30.0,1.874,-0.012843414100632226,2.0,0.8491847714130331,0.7619397606514201,0.08724501076161295
29,Pilot,d10012021,arjeO,deliberation,1.0,2.0,29.0,56.0,59.0,Luisc1.jpg,Kraa1n.jpg,44.0,64.0,0.0,1.0,1.0,56.0,59.0,1.542,-0.393984283947338,-20.0,-0.15413285234551619,0.7183172552706136,-0.8724501076161298
30,Pilot,d10012021,arjeO,deliberation,0.0,2.0,30.0,8.0,35.0,Klina1.jpg,Wdeka1.jpg,57.0,35.0,1.0,-1.0,1.0,8.0,35.0,1.852,-0.03809973680131756,22.0,0.4129597176049682,-0.5467354007727746,0.9596951183777428
31,Pilot,d10012021,arjeO,deliberation,1.0,2.0,31.0,32.0,29.0,Macka1.jpg,Clifb1.jpg,56.0,31.0,0.0,-1.0,1.0,32.0,29.0,1.323,-0.6453994962859783,25.0,0.36933721222416166,-0.7212254222960005,1.0905626345201622
32,Pilot,d10012021,arjeO,deliberation,1.0,3.0,32.0,41.0,53.0,Vincb1.jpg,Gorka1.jpg,46.0,60.0,0.0,-1.0,1.0,41.0,53.0,1.378,-0.582258689534265,-14.0,-0.0668878415839032,0.5438272337473876,-0.6107150753312908
33,Pilot,d10012021,arjeO,deliberation,1.0,3.0,33.0,2.0,36.0,Dekob1.jpg,Gorkf1.jpg,36.0,26.0,0.0,1.0,0.0,36.0,2.0,1.139,-0.8566341952371644,10.0,-0.5031128953919681,-0.939337949200033,0.43622505380806487
34,Pilot,d10012021,arjeO,deliberation,0.0,3.0,34.0,8.0,35.0,Klina1.jpg,Wdeka1.jpg,57.0,35.0,0.0,-1.0,1.0,8.0,35.0,1.459,-0.4892695014090143,22.0,0.4129597176049682,-0.5467354007727746,0.9596951183777428
35,Pilot,d10012021,arjeO,deliberation,0.0,3.0,35.0,14.0,48.0,Kupkb1.jpg,Picb1n.jpg,43.0,58.0,0.0,-1.0,0.0,48.0,14.0,1.146,-0.8485980925596738,-15.0,-0.19775535772632266,0.45658222298577467,-0.6543375807120974
36,Pilot,d10012021,arjeO,deliberation,0.0,3.0,36.0,45.0,40.0,Klia1n.jpg,Krab1n.jpg,45.0,29.0,0.0,1.0,0.0,40.0,45.0,2.33,0.5106512746044815,16.0,-0.11051034696470968,-0.8084704330576135,0.6979600860929038
37,Pilot,d10012021,arjeO,deliberation,0.0,3.0,37.0,7.0,57.0,Pica1n.jpg,Lewc1n.jpg,67.0,22.0,0.0,1.0,1.0,7.0,57.0,1.166,-0.8256377991954144,45.0,0.8491847714130331,-1.113827970723259,1.963012742136292
38,Pilot,d10012021,arjeO,deliberation,1.0,3.0,38.0,56.0,59.0,Luisc1.jpg,Kraa1n.jpg,44.0,64.0,0.0,1.0,1.0,56.0,59.0,1.187,-0.8015294911629418,-20.0,-0.15413285234551619,0.7183172552706136,-0.8724501076161298
39,Pilot,d10012021,arjeO,deliberation,0.0,3.0,39.0,16.0,12.0,Lewa1n.jpg,Kupkc1.jpg,37.0,65.0,0.0,-1.0,0.0,12.0,16.0,1.335,-0.6316233202674226,-28.0,-0.4594903900111616,0.7619397606514201,-1.2214301506625818
40,Pilot,d10012021,arjeO,deliberation,0.0,3.0,40.0,30.0,25.0,Lasse1.jpg,Clifa1.jpg,67.0,65.0,0.0,1.0,0.0,25.0,30.0,1.167,-0.8244897845272012,2.0,0.8491847714130331,0.7619397606514201,0.08724501076161295
41,Pilot,d10012021,arjeO,deliberation,1.0,3.0,41.0,32.0,29.0,Macka1.jpg,Clifb1.jpg,56.0,31.0,0.0,-1.0,1.0,32.0,29.0,0.943,-1.0816450702069063,25.0,0.36933721222416166,-0.7212254222960005,1.0905626345201622
42,Pilot,d10012021,arjeO,deliberation,1.0,3.0,42.0,31.0,47.0,Maca1n.jpg,Kupkd1.jpg,65.0,55.0,0.0,1.0,0.0,47.0,31.0,1.615,-0.3101792131677913,10.0,0.7619397606514201,0.3257147068433552,0.4362250538080649
43,Pilot,d10012021,arjeO,deliberation,0.0,3.0,43.0,5.0,33.0,Kupb1n.jpg,Kupc1n.jpg,62.0,52.0,0.0,1.0,1.0,5.0,33.0,1.246,-0.7337966257383768,10.0,0.6310722445090006,0.19484719070093573,0.43622505380806487
44,Pilot,d10012021,arjeO,deliberation,1.0,3.0,44.0,4.0,46.0,Mackb1.jpg,Deka1n.jpg,46.0,55.0,0.0,1.0,1.0,4.0,46.0,1.158,-0.8348219165411181,-9.0,-0.0668878415839032,0.3257147068433552,-0.3926025484272584
45,Pilot,d10012021,arjeO,deliberation,0.0,3.0,45.0,21.0,49.0,Lewb1n.jpg,Hinda1.jpg,58.0,66.0,0.0,-1.0,0.0,49.0,21.0,1.066,-0.9404392660167111,-8.0,0.45658222298577467,0.8055622660322266,-0.3489800430464519
46,Pilot,d10012021,arjeO,deliberation,1.0,3.0,46.0,34.0,39.0,Monb1n.jpg,Dekb1n.jpg,17.0,63.0,0.0,-1.0,0.0,39.0,34.0,1.246,-0.7337966257383768,-46.0,-1.3319404976272913,0.6746947498898072,-2.0066352475170985
47,Pilot,d10012021,arjeO,deliberation,1.0,3.0,47.0,44.0,19.0,Lassf1.jpg,Macc1n.jpg,64.0,65.0,0.0,-1.0,0.0,19.0,44.0,0.932,-1.094273231557249,-1.0,0.7183172552706136,0.7619397606514201,-0.043622505380806476
48,Pilot,d10012021,A26v1,deliberation,0.0,1.0,0.0,25.0,41.0,Clifa1.jpg,Vincb1.jpg,79.0,66.0,0.0,1.0,1.0,25.0,41.0,2.083,0.07261806086102092,13.0,0.7124981328460631,0.1595145073535962,0.5529836254924669
49,Pilot,d10012021,A26v1,deliberation,1.0,1.0,1.0,7.0,35.0,Pica1n.jpg,Wdeka1.jpg,85.0,88.0,1.0,-1.0,1.0,7.0,35.0,1.874,-0.09157044185652635,-3.0,0.967721344611817,1.095332950494694,-0.127611605882877
50,Pilot,d10012021,A26v1,deliberation,0.0,1.0,2.0,49.0,48.0,Hinda1.jpg,Picb1n.jpg,80.0,77.0,0.0,-1.0,0.0,48.0,49.0,1.692,-0.23454798967754845,3.0,0.7550353348070221,0.6274237289241451,0.127611605882877
51,Pilot,d10012021,A26v1,deliberation,1.0,1.0,3.0,28.0,12.0,Krasa1.jpg,Kupkc1.jpg,73.0,82.0,1.0,-1.0,0.0,12.0,28.0,1.245,-0.5857071318533551,-9.0,0.45727492108030915,0.8401097387289401,-0.382834817648631
52,Pilot,d10012021,A26v1,deliberation,1.0,1.0,4.0,27.0,9.0,Vinb1n.jpg,Lassc1.jpg,60.0,84.0,1.0,1.0,1.0,27.0,9.0,2.778,0.6186037517160223,-24.0,-0.09570870441215773,0.925184142650858,-1.0208928470630156
53,Pilot,d10012021,A26v1,deliberation,0.0,1.0,5.0,38.0,6.0,Lasc1n.jpg,Wdekc1.jpg,65.0,38.0,0.0,1.0,0.0,6.0,38.0,3.924,1.5188909484352047,27.0,0.11697730539263723,-1.0315271475532555,1.1485044529458928
54,Pilot,d10012021,A26v1,deliberation,1.0,1.0,6.0,59.0,4.0,Kraa1n.jpg,Mackb1.jpg,62.0,65.0,1.0,1.0,0.0,4.0,59.0,4.042,1.6115906772422408,-3.0,-0.010634300490239747,0.11697730539263723,-0.12761160588287698
55,Pilot,d10012021,A26v1,deliberation,1.0,1.0,7.0,0.0,32.0,Gorkc1.jpg,Macka1.jpg,40.0,74.0,1.0,-1.0,0.0,32.0,0.0,7.634,4.433433269402191,-34.0,-0.9464527436313376,0.49981212304126815,-1.4462648666726057
56,Pilot,d10012021,A26v1,deliberation,0.0,1.0,8.0,20.0,40.0,Gorc1n.jpg,Krab1n.jpg,45.0,76.0,0.0,1.0,0.0,40.0,20.0,2.4,0.3216503831646689,-31.0,-0.7337667338265426,0.5848865269631861,-1.3186532607897288
57,Pilot,d10012021,A26v1,deliberation,1.0,1.0,9.0,3.0,16.0,Fogeg1.jpg,Lewa1n.jpg,82.0,64.0,1.0,1.0,1.0,3.0,16.0,5.783,2.9793044726070725,18.0,0.8401097387289401,0.07444010343167823,0.7656696352972618
58,Pilot,d10012021,A26v1,deliberation,0.0,1.0,10.0,43.0,18.0,Picac1.jpg,Krasb1.jpg,36.0,64.0,0.0,-1.0,,,,,,-28.0,-1.1166015514751735,0.07444010343167823,-1.1910416549068517
59,Pilot,d10012021,A26v1,deliberation,0.0,1.0,10.0,43.0,18.0,Picac1.jpg,Krasb1.jpg,36.0,64.0,0.0,-1.0,1.0,43.0,18.0,1.64,-0.27539871762641194,-28.0,-1.1166015514751735,0.07444010343167823,-1.1910416549068517
60,Pilot,d10012021,A26v1,deliberation,0.0,1.0,11.0,55.0,15.0,Lewic1.jpg,Clia1n.jpg,71.0,38.0,0.0,1.0,0.0,15.0,55.0,3.106,0.8762775741626991,33.0,0.3722005171583912,-1.0315271475532555,1.4037276647116466
61,Pilot,d10012021,A26v1,deliberation,0.0,1.0,12.0,45.0,29.0,Klia1n.jpg,Clifb1.jpg,39.0,61.0,0.0,-1.0,0.0,29.0,45.0,2.935,0.7419415264847061,-22.0,-0.9889899455922966,-0.05317150245119874,-0.9358184431410979
62,Pilot,d10012021,A26v1,deliberation,1.0,1.0,13.0,54.0,52.0,Kupka1.jpg,Picaa1.jpg,66.0,61.0,1.0,-1.0,0.0,52.0,54.0,2.259,0.21088206314948152,5.0,0.1595145073535962,-0.05317150245119874,0.21268600980479496
63,Pilot,d10012021,A26v1,deliberation,0.0,1.0,14.0,14.0,50.0,Kupkb1.jpg,Gorke1.jpg,83.0,50.0,0.0,-1.0,0.0,50.0,14.0,3.741,1.3751278096920891,33.0,0.8826469406898991,-0.5210807240217477,1.4037276647116468
64,Pilot,d10012021,A26v1,deliberation,1.0,1.0,15.0,2.0,51.0,Dekob1.jpg,Gora1n.jpg,78.0,45.0,1.0,1.0,1.0,2.0,51.0,2.109,0.09304342483545247,33.0,0.6699609308851041,-0.7337667338265426,1.4037276647116466
65,Pilot,d10012021,A26v1,deliberation,1.0,2.0,16.0,0.0,32.0,Gorkc1.jpg,Macka1.jpg,40.0,74.0,0.0,-1.0,0.0,32.0,0.0,1.398,-0.46551172077304553,-34.0,-0.9464527436313376,0.49981212304126815,-1.4462648666726057
66,Pilot,d10012021,A26v1,deliberation,1.0,2.0,17.0,3.0,16.0,Fogeg1.jpg,Lewa1n.jpg,82.0,64.0,0.0,1.0,1.0,3.0,16.0,1.422,-0.44665753864280083,18.0,0.8401097387289401,0.07444010343167823,0.7656696352972618
67,Pilot,d10012021,A26v1,deliberation,1.0,2.0,18.0,7.0,35.0,Pica1n.jpg,Wdeka1.jpg,85.0,88.0,0.0,-1.0,1.0,7.0,35.0,1.217,-0.6077036776719739,-3.0,0.967721344611817,1.095332950494694,-0.127611605882877
68,Pilot,d10012021,A26v1,deliberation,1.0,2.0,19.0,54.0,52.0,Kupka1.jpg,Picaa1.jpg,66.0,61.0,0.0,-1.0,0.0,52.0,54.0,1.267,-0.5684241315672977,5.0,0.1595145073535962,-0.05317150245119874,0.21268600980479496
69,Pilot,d10012021,A26v1,deliberation,0.0,2.0,20.0,14.0,50.0,Kupkb1.jpg,Gorke1.jpg,83.0,50.0,1.0,-1.0,0.0,50.0,14.0,2.288,0.23366419989019374,33.0,0.8826469406898991,-0.5210807240217477,1.4037276647116468
70,Pilot,d10012021,A26v1,deliberation,0.0,2.0,21.0,20.0,40.0,Gorc1n.jpg,Krab1n.jpg,45.0,76.0,1.0,1.0,0.0,40.0,20.0,1.747,-0.19134048896240433,-31.0,-0.7337667338265426,0.5848865269631861,-1.3186532607897288
71,Pilot,d10012021,A26v1,deliberation,1.0,2.0,22.0,27.0,9.0,Vinb1n.jpg,Lassc1.jpg,60.0,84.0,0.0,1.0,1.0,27.0,9.0,2.226,0.18495756272039518,-24.0,-0.09570870441215773,0.925184142650858,-1.0208928470630156
72,Pilot,d10012021,A26v1,deliberation,0.0,2.0,23.0,38.0,6.0,Lasc1n.jpg,Wdekc1.jpg,65.0,38.0,1.0,1.0,0.0,6.0,38.0,1.33,-0.5189319034754053,27.0,0.11697730539263723,-1.0315271475532555,1.1485044529458928
73,Pilot,d10012021,A26v1,deliberation,0.0,2.0,24.0,55.0,15.0,Lewic1.jpg,Clia1n.jpg,71.0,38.0,1.0,1.0,0.0,15.0,55.0,1.603,-0.3044655817438724,33.0,0.3722005171583912,-1.0315271475532555,1.4037276647116466
74,Pilot,d10012021,A26v1,deliberation,0.0,2.0,25.0,43.0,18.0,Picac1.jpg,Krasb1.jpg,36.0,64.0,1.0,-1.0,1.0,43.0,18.0,2.069,0.06161978795171135,-28.0,-1.1166015514751735,0.07444010343167823,-1.1910416549068517
75,Pilot,d10012021,A26v1,deliberation,0.0,2.0,26.0,25.0,41.0,Clifa1.jpg,Vincb1.jpg,79.0,66.0,1.0,1.0,1.0,25.0,41.0,1.646,-0.27068517209385073,13.0,0.7124981328460631,0.1595145073535962,0.5529836254924669
76,Pilot,d10012021,A26v1,deliberation,1.0,2.0,27.0,59.0,4.0,Kraa1n.jpg,Mackb1.jpg,62.0,65.0,0.0,1.0,0.0,4.0,59.0,2.63,0.5023362952461802,-3.0,-0.010634300490239747,0.11697730539263723,-0.12761160588287698
77,Pilot,d10012021,A26v1,deliberation,0.0,2.0,28.0,49.0,48.0,Hinda1.jpg,Picb1n.jpg,80.0,77.0,1.0,-1.0,0.0,48.0,49.0,1.302,-0.5409284492940241,3.0,0.7550353348070221,0.6274237289241451,0.127611605882877
78,Pilot,d10012021,A26v1,deliberation,1.0,2.0,29.0,2.0,51.0,Dekob1.jpg,Gora1n.jpg,78.0,45.0,0.0,1.0,1.0,2.0,51.0,2.357,0.28786997351464744,33.0,0.6699609308851041,-0.7337667338265426,1.4037276647116466
79,Pilot,d10012021,A26v1,deliberation,0.0,2.0,30.0,45.0,29.0,Klia1n.jpg,Clifb1.jpg,39.0,61.0,1.0,-1.0,0.0,29.0,45.0,1.363,-0.4930074030463189,-22.0,-0.9889899455922966,-0.05317150245119874,-0.9358184431410979
80,Pilot,d10012021,A26v1,deliberation,1.0,2.0,31.0,28.0,12.0,Krasa1.jpg,Kupkc1.jpg,73.0,82.0,0.0,-1.0,0.0,12.0,28.0,1.299,-0.5432852220603047,-9.0,0.45727492108030915,0.8401097387289401,-0.382834817648631
81,Pilot,d10012021,A26v1,deliberation,1.0,3.0,32.0,59.0,4.0,Kraa1n.jpg,Mackb1.jpg,62.0,65.0,0.0,1.0,0.0,4.0,59.0,1.197,-0.6234154961138444,-3.0,-0.010634300490239747,0.11697730539263723,-0.12761160588287698
82,Pilot,d10012021,A26v1,deliberation,0.0,3.0,33.0,55.0,15.0,Lewic1.jpg,Clia1n.jpg,71.0,38.0,0.0,1.0,0.0,15.0,55.0,1.059,-0.7318270433627513,33.0,0.3722005171583912,-1.0315271475532555,1.4037276647116466
83,Pilot,d10012021,A26v1,deliberation,1.0,3.0,34.0,3.0,16.0,Fogeg1.jpg,Lewa1n.jpg,82.0,64.0,0.0,1.0,1.0,3.0,16.0,1.462,-0.4152339017590597,18.0,0.8401097387289401,0.07444010343167823,0.7656696352972618
84,Pilot,d10012021,A26v1,deliberation,1.0,3.0,35.0,2.0,51.0,Dekob1.jpg,Gora1n.jpg,78.0,45.0,0.0,1.0,1.0,2.0,51.0,1.159,-0.6532679511533984,33.0,0.6699609308851041,-0.7337667338265426,1.4037276647116466
85,Pilot,d10012021,A26v1,deliberation,0.0,3.0,36.0,20.0,40.0,Gorc1n.jpg,Krab1n.jpg,45.0,76.0,0.0,1.0,0.0,40.0,20.0,1.149,-0.6611238603743338,-31.0,-0.7337667338265426,0.5848865269631861,-1.3186532607897288
86,Pilot,d10012021,A26v1,deliberation,1.0,3.0,37.0,0.0,32.0,Gorkc1.jpg,Macka1.jpg,40.0,74.0,0.0,-1.0,0.0,32.0,0.0,1.008,-0.7718921803895211,-34.0,-0.9464527436313376,0.49981212304126815,-1.4462648666726057
87,Pilot,d10012021,A26v1,deliberation,1.0,3.0,38.0,7.0,35.0,Pica1n.jpg,Wdeka1.jpg,85.0,88.0,0.0,-1.0,1.0,7.0,35.0,1.413,-0.4537278569416425,-3.0,0.967721344611817,1.095332950494694,-0.127611605882877
88,Pilot,d10012021,A26v1,deliberation,0.0,3.0,39.0,14.0,50.0,Kupkb1.jpg,Gorke1.jpg,83.0,50.0,0.0,-1.0,0.0,50.0,14.0,1.229,-0.5982765866068515,33.0,0.8826469406898991,-0.5210807240217477,1.4037276647116468
89,Pilot,d10012021,A26v1,deliberation,0.0,3.0,40.0,49.0,48.0,Hinda1.jpg,Picb1n.jpg,80.0,77.0,0.0,-1.0,0.0,48.0,49.0,1.2,-0.621058723347564,3.0,0.7550353348070221,0.6274237289241451,0.127611605882877
90,Pilot,d10012021,A26v1,deliberation,0.0,3.0,41.0,45.0,29.0,Klia1n.jpg,Clifb1.jpg,39.0,61.0,0.0,-1.0,0.0,29.0,45.0,0.756,-0.96986109275709,-22.0,-0.9889899455922966,-0.05317150245119874,-0.9358184431410979
91,Pilot,d10012021,A26v1,deliberation,0.0,3.0,42.0,43.0,18.0,Picac1.jpg,Krasb1.jpg,36.0,64.0,0.0,-1.0,1.0,43.0,18.0,1.282,-0.5566402677358946,-28.0,-1.1166015514751735,0.07444010343167823,-1.1910416549068517
92,Pilot,d10012021,A26v1,deliberation,1.0,3.0,43.0,54.0,52.0,Kupka1.jpg,Picaa1.jpg,66.0,61.0,0.0,-1.0,0.0,52.0,54.0,1.158,-0.654053542075492,5.0,0.1595145073535962,-0.05317150245119874,0.21268600980479496
93,Pilot,d10012021,A26v1,deliberation,0.0,3.0,44.0,25.0,41.0,Clifa1.jpg,Vincb1.jpg,79.0,66.0,0.0,1.0,1.0,25.0,41.0,1.311,-0.5338581309951824,13.0,0.7124981328460631,0.1595145073535962,0.5529836254924669
94,Pilot,d10012021,A26v1,deliberation,0.0,3.0,45.0,38.0,6.0,Lasc1n.jpg,Wdekc1.jpg,65.0,38.0,0.0,1.0,0.0,6.0,38.0,1.198,-0.622629905191751,27.0,0.11697730539263723,-1.0315271475532555,1.1485044529458928
95,Pilot,d10012021,A26v1,deliberation,1.0,3.0,46.0,27.0,9.0,Vinb1n.jpg,Lassc1.jpg,60.0,84.0,0.0,1.0,1.0,27.0,9.0,1.207,-0.6155595868929091,-24.0,-0.09570870441215773,0.925184142650858,-1.0208928470630156
96,Pilot,d10012021,A26v1,deliberation,1.0,3.0,47.0,28.0,12.0,Krasa1.jpg,Kupkc1.jpg,73.0,82.0,0.0,-1.0,0.0,12.0,28.0,1.35,-0.5032200850335347,-9.0,0.45727492108030915,0.8401097387289401,-0.382834817648631
97,Pilot,d10012021,eoRdQ,deliberation,0.0,1.0,0.0,32.0,1.0,Macka1.jpg,Lewia1.jpg,77.0,70.0,0.0,-1.0,0.0,1.0,32.0,4.176,0.6547039581125847,7.0,0.41320026283916045,0.03756366025810563,0.3756366025810548
98,Pilot,d10012021,eoRdQ,deliberation,0.0,1.0,1.0,2.0,52.0,Dekob1.jpg,Picaa1.jpg,66.0,68.0,0.0,1.0,0.0,52.0,2.0,4.511,0.8409152154786941,-2.0,-0.17708582693106856,-0.06976108333648146,-0.1073247435945871
99,Pilot,d10012021,eoRdQ,deliberation,0.0,1.0,2.0,56.0,38.0,Luisc1.jpg,Lasc1n.jpg,58.0,62.0,0.0,-1.0,1.0,56.0,38.0,4.717,0.9554212423963611,-4.0,-0.606384801309417,-0.39173531412024276,-0.2146494871891742
100,Pilot,d10012021,eoRdQ,deliberation,1.0,1.0,3.0,48.0,17.0,Picb1n.jpg,Picab1.jpg,80.0,61.0,1.0,-1.0,1.0,48.0,17.0,3.908,0.5057349522196972,19.0,0.574187378231041,-0.44539768591753626,1.0195850641485773
101,Pilot,d10012021,eoRdQ,deliberation,0.0,1.0,4.0,57.0,53.0,Lewc1n.jpg,Gorka1.jpg,66.0,61.0,0.0,1.0,1.0,57.0,53.0,3.758,0.42235677727964827,5.0,-0.17708582693106856,-0.44539768591753626,0.2683118589864677
102,Pilot,d10012021,eoRdQ,deliberation,0.0,1.0,5.0,35.0,16.0,Wdeka1.jpg,Lewa1n.jpg,59.0,76.0,0.0,-1.0,1.0,35.0,16.0,4.178,0.6558156671117853,-17.0,-0.5527224295121234,0.3595378910418669,-0.9122603205539903
103,Pilot,d10012021,eoRdQ,deliberation,1.0,1.0,6.0,42.0,41.0,Picc1n.jpg,Vincb1.jpg,66.0,70.0,1.0,-1.0,0.0,41.0,42.0,4.158,0.6446985771197791,-4.0,-0.17708582693106856,0.03756366025810563,-0.2146494871891742
104,Pilot,d10012021,eoRdQ,deliberation,1.0,1.0,7.0,15.0,37.0,Clia1n.jpg,Mondb1.jpg,73.0,84.0,1.0,1.0,0.0,37.0,15.0,5.646,1.4718100725250645,-11.0,0.19855077564998627,0.7888368654202152,-0.590286089770229
105,Pilot,d10012021,eoRdQ,deliberation,0.0,1.0,8.0,33.0,10.0,Kupc1n.jpg,Stera1.jpg,71.0,68.0,0.0,-1.0,1.0,33.0,10.0,5.455,1.3656418631014022,3.0,0.09122603205539918,-0.06976108333648146,0.16098711539188065
106,Pilot,d10012021,eoRdQ,deliberation,1.0,1.0,9.0,12.0,39.0,Kupkc1.jpg,Dekb1n.jpg,70.0,78.0,1.0,1.0,,,,,,-8.0,0.03756366025810563,0.466862634636454,-0.42929897437834835
107,Pilot,d10012021,eoRdQ,deliberation,1.0,1.0,9.0,12.0,39.0,Kupkc1.jpg,Dekb1n.jpg,70.0,78.0,1.0,1.0,0.0,39.0,12.0,1.308,-0.9394867467411514,-8.0,0.03756366025810563,0.466862634636454,-0.42929897437834835
108,Pilot,d10012021,eoRdQ,deliberation,0.0,1.0,10.0,8.0,55.0,Klina1.jpg,Lewic1.jpg,62.0,78.0,0.0,1.0,0.0,55.0,8.0,4.297,0.721962352564224,-16.0,-0.39173531412024276,0.466862634636454,-0.8585979487566968
109,Pilot,d10012021,eoRdQ,deliberation,1.0,1.0,11.0,14.0,23.0,Kupkb1.jpg,Lewib1.jpg,83.0,79.0,1.0,1.0,1.0,14.0,23.0,4.271,0.7075101355746156,4.0,0.7351744936229218,0.5205250064337476,0.2146494871891742
110,Pilot,d10012021,eoRdQ,deliberation,1.0,1.0,12.0,40.0,26.0,Krab1n.jpg,Clib1n.jpg,74.0,61.0,1.0,-1.0,1.0,40.0,26.0,4.98,1.1016109757912473,13.0,0.2522131474472798,-0.44539768591753626,0.6976108333648161
111,Pilot,d10012021,eoRdQ,deliberation,1.0,1.0,13.0,31.0,36.0,Maca1n.jpg,Gorkf1.jpg,74.0,64.0,1.0,-1.0,1.0,31.0,36.0,4.27,0.7069542810750151,10.0,0.2522131474472798,-0.28441057052565566,0.5366237179729354
112,Pilot,d10012021,eoRdQ,deliberation,1.0,1.0,14.0,21.0,27.0,Lewb1n.jpg,Vinb1n.jpg,86.0,69.0,1.0,1.0,1.0,21.0,27.0,2.632,-0.2035353892703192,17.0,0.8961616090148024,-0.01609871153918791,0.9122603205539903
113,Pilot,d10012021,eoRdQ,deliberation,0.0,1.0,15.0,34.0,45.0,Monb1n.jpg,Klia1n.jpg,69.0,72.0,0.0,1.0,0.0,45.0,34.0,6.478,1.934281016192536,-3.0,-0.01609871153918791,0.14488840385269272,-0.16098711539188063
114,Pilot,d10012021,eoRdQ,deliberation,1.0,2.0,16.0,42.0,41.0,Picc1n.jpg,Vincb1.jpg,66.0,70.0,0.0,-1.0,0.0,41.0,42.0,3.799,0.4451468117632616,-4.0,-0.17708582693106856,0.03756366025810563,-0.2146494871891742
115,Pilot,d10012021,eoRdQ,deliberation,1.0,2.0,17.0,48.0,17.0,Picb1n.jpg,Picab1.jpg,80.0,61.0,0.0,-1.0,1.0,48.0,17.0,0.821,-1.2101878880465105,19.0,0.574187378231041,-0.44539768591753626,1.0195850641485773
116,Pilot,d10012021,eoRdQ,deliberation,0.0,2.0,18.0,8.0,55.0,Klina1.jpg,Lewic1.jpg,62.0,78.0,1.0,1.0,0.0,55.0,8.0,1.492,-0.8372095188146913,-16.0,-0.39173531412024276,0.466862634636454,-0.8585979487566968
117,Pilot,d10012021,eoRdQ,deliberation,1.0,2.0,19.0,15.0,37.0,Clia1n.jpg,Mondb1.jpg,73.0,84.0,0.0,1.0,0.0,37.0,15.0,2.11,-0.4936914380616897,-11.0,0.19855077564998627,0.7888368654202152,-0.590286089770229
118,Pilot,d10012021,eoRdQ,deliberation,0.0,2.0,20.0,56.0,38.0,Luisc1.jpg,Lasc1n.jpg,58.0,62.0,1.0,-1.0,1.0,56.0,38.0,1.518,-0.8227573018250829,-4.0,-0.606384801309417,-0.39173531412024276,-0.2146494871891742
119,Pilot,d10012021,eoRdQ,deliberation,0.0,2.0,21.0,33.0,10.0,Kupc1n.jpg,Stera1.jpg,71.0,68.0,1.0,-1.0,1.0,33.0,10.0,3.057,0.032702773059819425,3.0,0.09122603205539918,-0.06976108333648146,0.16098711539188065
120,Pilot,d10012021,eoRdQ,deliberation,0.0,2.0,22.0,2.0,52.0,Dekob1.jpg,Picaa1.jpg,66.0,68.0,1.0,1.0,0.0,52.0,2.0,4.329,0.7397496965514345,-2.0,-0.17708582693106856,-0.06976108333648146,-0.1073247435945871
121,Pilot,d10012021,eoRdQ,deliberation,1.0,2.0,23.0,14.0,23.0,Kupkb1.jpg,Lewib1.jpg,83.0,79.0,0.0,1.0,1.0,14.0,23.0,5.091,1.1633108252468833,4.0,0.7351744936229218,0.5205250064337476,0.2146494871891742
122,Pilot,d10012021,eoRdQ,deliberation,0.0,2.0,24.0,32.0,1.0,Macka1.jpg,Lewia1.jpg,77.0,70.0,1.0,-1.0,0.0,1.0,32.0,1.168,-1.017306376685197,7.0,0.41320026283916045,0.03756366025810563,0.3756366025810548
123,Pilot,d10012021,eoRdQ,deliberation,1.0,2.0,25.0,12.0,39.0,Kupkc1.jpg,Dekb1n.jpg,70.0,78.0,0.0,1.0,0.0,39.0,12.0,1.764,-0.6860170949234026,-8.0,0.03756366025810563,0.466862634636454,-0.42929897437834835
124,Pilot,d10012021,eoRdQ,deliberation,1.0,2.0,26.0,21.0,27.0,Lewb1n.jpg,Vinb1n.jpg,86.0,69.0,0.0,1.0,1.0,21.0,27.0,1.241,-0.9767289982143732,17.0,0.8961616090148024,-0.01609871153918791,0.9122603205539903
125,Pilot,d10012021,eoRdQ,deliberation,0.0,2.0,27.0,35.0,16.0,Wdeka1.jpg,Lewa1n.jpg,59.0,76.0,1.0,-1.0,1.0,35.0,16.0,2.312,-0.3814088291424238,-17.0,-0.5527224295121234,0.3595378910418669,-0.9122603205539903
126,Pilot,d10012021,eoRdQ,deliberation,0.0,2.0,28.0,34.0,45.0,Monb1n.jpg,Klia1n.jpg,69.0,72.0,1.0,1.0,0.0,45.0,34.0,2.487,-0.28413429171236654,-3.0,-0.01609871153918791,0.14488840385269272,-0.16098711539188063
127,Pilot,d10012021,eoRdQ,deliberation,1.0,2.0,29.0,40.0,26.0,Krab1n.jpg,Clib1n.jpg,74.0,61.0,0.0,-1.0,1.0,40.0,26.0,5.432,1.3528572096105949,13.0,0.2522131474472798,-0.44539768591753626,0.6976108333648161
128,Pilot,d10012021,eoRdQ,deliberation,1.0,2.0,30.0,31.0,36.0,Maca1n.jpg,Gorkf1.jpg,74.0,64.0,0.0,-1.0,1.0,31.0,36.0,1.86,-0.6326550629617712,10.0,0.2522131474472798,-0.28441057052565566,0.5366237179729354
129,Pilot,d10012021,eoRdQ,deliberation,0.0,2.0,31.0,57.0,53.0,Lewc1n.jpg,Gorka1.jpg,66.0,61.0,1.0,1.0,1.0,57.0,53.0,1.823,-0.6532216794469833,5.0,-0.17708582693106856,-0.44539768591753626,0.2683118589864677
130,Pilot,d10012021,eoRdQ,deliberation,1.0,3.0,32.0,15.0,37.0,Clia1n.jpg,Mondb1.jpg,73.0,84.0,0.0,1.0,0.0,37.0,15.0,2.45,-0.30470090819757856,-11.0,0.19855077564998627,0.7888368654202152,-0.590286089770229
131,Pilot,d10012021,eoRdQ,deliberation,0.0,3.0,33.0,35.0,16.0,Wdeka1.jpg,Lewa1n.jpg,59.0,76.0,0.0,-1.0,1.0,35.0,16.0,1.337,-0.923366966252742,-17.0,-0.5527224295121234,0.3595378910418669,-0.9122603205539903
132,Pilot,d10012021,eoRdQ,deliberation,0.0,3.0,34.0,57.0,53.0,Lewc1n.jpg,Gorka1.jpg,66.0,61.0,0.0,1.0,1.0,57.0,53.0,0.915,-1.1579375650840797,5.0,-0.17708582693106856,-0.44539768591753626,0.2683118589864677
133,Pilot,d10012021,eoRdQ,deliberation,1.0,3.0,35.0,14.0,23.0,Kupkb1.jpg,Lewib1.jpg,83.0,79.0,0.0,1.0,1.0,14.0,23.0,1.399,-0.8889039872775217,4.0,0.7351744936229218,0.5205250064337476,0.2146494871891742
134,Pilot,d10012021,eoRdQ,deliberation,0.0,3.0,36.0,33.0,10.0,Kupc1n.jpg,Stera1.jpg,71.0,68.0,0.0,-1.0,1.0,33.0,10.0,0.933,-1.147932184091274,3.0,0.09122603205539918,-0.06976108333648146,0.16098711539188065
135,Pilot,d10012021,eoRdQ,deliberation,0.0,3.0,37.0,34.0,45.0,Monb1n.jpg,Klia1n.jpg,69.0,72.0,0.0,1.0,0.0,45.0,34.0,1.402,-0.8872364237787208,-3.0,-0.01609871153918791,0.14488840385269272,-0.16098711539188063
136,Pilot,d10012021,eoRdQ,deliberation,1.0,3.0,38.0,42.0,41.0,Picc1n.jpg,Vincb1.jpg,66.0,70.0,0.0,-1.0,0.0,41.0,42.0,2.722,-0.15350848430628988,-4.0,-0.17708582693106856,0.03756366025810563,-0.2146494871891742
137,Pilot,d10012021,eoRdQ,deliberation,1.0,3.0,39.0,40.0,26.0,Krab1n.jpg,Clib1n.jpg,74.0,61.0,0.0,-1.0,1.0,40.0,26.0,1.323,-0.9311489292471465,13.0,0.2522131474472798,-0.44539768591753626,0.6976108333648161
138,Pilot,d10012021,eoRdQ,deliberation,0.0,3.0,40.0,32.0,1.0,Macka1.jpg,Lewia1.jpg,77.0,70.0,0.0,-1.0,0.0,1.0,32.0,1.04,-1.0884557526340388,7.0,0.41320026283916045,0.03756366025810563,0.3756366025810548
139,Pilot,d10012021,eoRdQ,deliberation,0.0,3.0,41.0,8.0,55.0,Klina1.jpg,Lewic1.jpg,62.0,78.0,0.0,1.0,0.0,55.0,8.0,1.789,-0.6721207324333944,-16.0,-0.39173531412024276,0.466862634636454,-0.8585979487566968
140,Pilot,d10012021,eoRdQ,deliberation,0.0,3.0,42.0,56.0,38.0,Luisc1.jpg,Lasc1n.jpg,58.0,62.0,0.0,-1.0,1.0,56.0,38.0,5.474,1.3762030985938085,-4.0,-0.606384801309417,-0.39173531412024276,-0.2146494871891742
141,Pilot,d10012021,eoRdQ,deliberation,1.0,3.0,43.0,12.0,39.0,Kupkc1.jpg,Dekb1n.jpg,70.0,78.0,0.0,1.0,0.0,39.0,12.0,8.355,2.977619911942349,-8.0,0.03756366025810563,0.466862634636454,-0.42929897437834835
142,Pilot,d10012021,eoRdQ,deliberation,0.0,3.0,44.0,2.0,52.0,Dekob1.jpg,Picaa1.jpg,66.0,68.0,0.0,1.0,0.0,52.0,2.0,1.569,-0.7944087223454662,-2.0,-0.17708582693106856,-0.06976108333648146,-0.1073247435945871
143,Pilot,d10012021,eoRdQ,deliberation,1.0,3.0,45.0,31.0,36.0,Maca1n.jpg,Gorkf1.jpg,74.0,64.0,0.0,-1.0,1.0,31.0,36.0,1.074,-1.0695566996476278,10.0,0.2522131474472798,-0.28441057052565566,0.5366237179729354
144,Pilot,d10012021,eoRdQ,deliberation,1.0,3.0,46.0,48.0,17.0,Picb1n.jpg,Picab1.jpg,80.0,61.0,0.0,-1.0,1.0,48.0,17.0,2.044,-0.5303778350353111,19.0,0.574187378231041,-0.44539768591753626,1.0195850641485773
145,Pilot,d10012021,eoRdQ,deliberation,1.0,3.0,47.0,21.0,27.0,Lewb1n.jpg,Vinb1n.jpg,86.0,69.0,0.0,1.0,1.0,21.0,27.0,1.039,-1.0890116071336393,17.0,0.8961616090148024,-0.01609871153918791,0.9122603205539903
146,Pilot,d10012021,lPMys,deliberation,1.0,1.0,0.0,51.0,23.0,Gora1n.jpg,Lewib1.jpg,63.0,61.0,1.0,-1.0,0.0,23.0,51.0,4.42,1.0986670407728993,2.0,0.41639241782893044,0.288599348418517,0.12779306941041346
147,Pilot,d10012021,lPMys,deliberation,0.0,1.0,1.0,24.0,38.0,Dekoa1.jpg,Lasc1n.jpg,55.0,57.0,0.0,1.0,1.0,24.0,38.0,3.939,0.8326168363807079,-2.0,-0.09477985981272337,0.03301320959769008,-0.12779306941041346
148,Pilot,d10012021,lPMys,deliberation,0.0,1.0,2.0,31.0,10.0,Maca1n.jpg,Stera1.jpg,59.0,48.0,0.0,1.0,1.0,31.0,10.0,5.216,1.5389497075009335,11.0,0.16080627900810354,-0.5420556027491704,0.7028618817572739
149,Pilot,d10012021,lPMys,deliberation,1.0,1.0,3.0,18.0,1.0,Krasb1.jpg,Lewia1.jpg,61.0,64.0,1.0,1.0,0.0,1.0,18.0,2.131,-0.16742218553422372,-3.0,0.288599348418517,0.48028895253413717,-0.1916896041156202
150,Pilot,d10012021,lPMys,deliberation,1.0,1.0,4.0,5.0,37.0,Kupb1n.jpg,Mondb1.jpg,58.0,62.0,1.0,-1.0,0.0,37.0,5.0,8.08,3.1230823174369755,-4.0,0.09690974430289681,0.3524958831237237,-0.2555861388208269
151,Pilot,d10012021,lPMys,deliberation,0.0,1.0,5.0,2.0,13.0,Dekob1.jpg,Picak1.jpg,57.0,60.0,0.0,-1.0,0.0,13.0,2.0,3.845,0.7806236571439804,-3.0,0.03301320959769008,0.22470281371331025,-0.19168960411562017
152,Pilot,d10012021,lPMys,deliberation,0.0,1.0,6.0,33.0,7.0,Kupc1n.jpg,Pica1n.jpg,60.0,68.0,0.0,1.0,1.0,33.0,7.0,7.317,2.701052575334601,-8.0,0.22470281371331025,0.7358750913549641,-0.5111722776416538
153,Pilot,d10012021,lPMys,deliberation,0.0,1.0,7.0,56.0,22.0,Luisc1.jpg,Macb1n.jpg,54.0,41.0,0.0,-1.0,0.0,22.0,56.0,3.769,0.738586618612158,13.0,-0.15867639451793009,-0.9893313456856175,0.8306549511676875
154,Pilot,d10012021,lPMys,deliberation,1.0,1.0,8.0,47.0,40.0,Kupkd1.jpg,Krab1n.jpg,58.0,53.0,1.0,1.0,1.0,47.0,40.0,3.843,0.7795174192878797,5.0,0.09690974430289681,-0.22257292922313682,0.31948267352603366
155,Pilot,d10012021,lPMys,deliberation,0.0,1.0,9.0,55.0,49.0,Lewic1.jpg,Hinda1.jpg,50.0,43.0,0.0,1.0,1.0,55.0,49.0,2.418,-0.008677053183789153,7.0,-0.414262533338757,-0.8615382762752041,0.44727574293644706
156,Pilot,d10012021,lPMys,deliberation,0.0,1.0,10.0,27.0,28.0,Vinb1n.jpg,Krasa1.jpg,53.0,55.0,0.0,-1.0,,,,,,-2.0,-0.22257292922313682,-0.09477985981272337,-0.12779306941041346
157,Pilot,d10012021,lPMys,deliberation,0.0,1.0,10.0,27.0,28.0,Vinb1n.jpg,Krasa1.jpg,53.0,55.0,0.0,-1.0,1.0,27.0,28.0,1.761,-0.37207618891283245,-2.0,-0.22257292922313682,-0.09477985981272337,-0.12779306941041346
158,Pilot,d10012021,lPMys,deliberation,1.0,1.0,11.0,44.0,59.0,Lassf1.jpg,Kraa1n.jpg,61.0,60.0,1.0,1.0,0.0,59.0,44.0,2.958,0.2900071679633696,1.0,0.288599348418517,0.22470281371331025,0.06389653470520673
159,Pilot,d10012021,lPMys,deliberation,1.0,1.0,12.0,57.0,50.0,Lewc1n.jpg,Gorke1.jpg,43.0,56.0,1.0,1.0,1.0,57.0,50.0,4.347,1.058289359025228,-13.0,-0.8615382762752041,-0.030883325107516645,-0.8306549511676874
160,Pilot,d10012021,lPMys,deliberation,1.0,1.0,13.0,43.0,8.0,Picac1.jpg,Klina1.jpg,67.0,39.0,1.0,-1.0,1.0,43.0,8.0,1.922,-0.2830240414967351,28.0,0.6719785566497574,-1.1171244150960309,1.7891029717457883
161,Pilot,d10012021,lPMys,deliberation,0.0,1.0,14.0,46.0,0.0,Deka1n.jpg,Gorkc1.jpg,60.0,59.0,0.0,-1.0,0.0,0.0,46.0,3.335,0.4985330038383303,1.0,0.22470281371331025,0.16080627900810354,0.0638965347052067
162,Pilot,d10012021,lPMys,deliberation,1.0,1.0,15.0,41.0,17.0,Vincb1.jpg,Picab1.jpg,62.0,70.0,1.0,-1.0,1.0,41.0,17.0,5.194,1.5267810910838269,-8.0,0.3524958831237237,0.8636681607653776,-0.5111722776416538
163,Pilot,d10012021,lPMys,deliberation,1.0,2.0,16.0,18.0,1.0,Krasb1.jpg,Lewia1.jpg,61.0,64.0,0.0,1.0,0.0,1.0,18.0,3.234,0.44266799210525065,-3.0,0.288599348418517,0.48028895253413717,-0.1916896041156202
164,Pilot,d10012021,lPMys,deliberation,0.0,2.0,17.0,31.0,10.0,Maca1n.jpg,Stera1.jpg,59.0,48.0,1.0,1.0,1.0,31.0,10.0,1.531,-0.49929354236440004,11.0,0.16080627900810354,-0.5420556027491704,0.7028618817572739
165,Pilot,d10012021,lPMys,deliberation,0.0,2.0,18.0,27.0,28.0,Vinb1n.jpg,Krasa1.jpg,53.0,55.0,1.0,-1.0,0.0,28.0,27.0,4.535,1.1622757174986833,-2.0,-0.22257292922313682,-0.09477985981272337,-0.12779306941041346
166,Pilot,d10012021,lPMys,deliberation,1.0,2.0,19.0,43.0,8.0,Picac1.jpg,Klina1.jpg,67.0,39.0,0.0,-1.0,1.0,43.0,8.0,1.864,-0.315104939323652,28.0,0.6719785566497574,-1.1171244150960309,1.7891029717457883
167,Pilot,d10012021,lPMys,deliberation,0.0,2.0,20.0,24.0,38.0,Dekoa1.jpg,Lasc1n.jpg,55.0,57.0,1.0,1.0,1.0,24.0,38.0,1.706,-0.40249772995559857,-2.0,-0.09477985981272337,0.03301320959769008,-0.12779306941041346
168,Pilot,d10012021,lPMys,deliberation,1.0,2.0,21.0,44.0,59.0,Lassf1.jpg,Kraa1n.jpg,61.0,60.0,0.0,1.0,0.0,59.0,44.0,1.6,-0.4611283363289297,1.0,0.288599348418517,0.22470281371331025,0.06389653470520673
169,Pilot,d10012021,lPMys,deliberation,1.0,2.0,22.0,47.0,40.0,Kupkd1.jpg,Krab1n.jpg,58.0,53.0,0.0,1.0,1.0,47.0,40.0,1.12,-0.7266254217930708,5.0,0.09690974430289681,-0.22257292922313682,0.31948267352603366
170,Pilot,d10012021,lPMys,deliberation,1.0,2.0,23.0,41.0,17.0,Vincb1.jpg,Picab1.jpg,62.0,70.0,0.0,-1.0,1.0,41.0,17.0,0.982,-0.8029558338640114,-8.0,0.3524958831237237,0.8636681607653776,-0.5111722776416538
171,Pilot,d10012021,lPMys,deliberation,0.0,2.0,24.0,56.0,22.0,Luisc1.jpg,Macb1n.jpg,54.0,41.0,1.0,-1.0,0.0,22.0,56.0,1.757,-0.37428866462503363,13.0,-0.15867639451793009,-0.9893313456856175,0.8306549511676875
172,Pilot,d10012021,lPMys,deliberation,0.0,2.0,25.0,46.0,0.0,Deka1n.jpg,Gorkc1.jpg,60.0,59.0,1.0,-1.0,0.0,0.0,46.0,2.816,0.21146428018022767,1.0,0.22470281371331025,0.16080627900810354,0.0638965347052067
173,Pilot,d10012021,lPMys,deliberation,1.0,2.0,26.0,57.0,50.0,Lewc1n.jpg,Gorke1.jpg,43.0,56.0,0.0,1.0,1.0,57.0,50.0,1.897,-0.2968520146979924,-13.0,-0.8615382762752041,-0.030883325107516645,-0.8306549511676874
174,Pilot,d10012021,lPMys,deliberation,0.0,2.0,27.0,55.0,49.0,Lewic1.jpg,Hinda1.jpg,50.0,43.0,1.0,1.0,1.0,55.0,49.0,1.055,-0.76257815211634,7.0,-0.414262533338757,-0.8615382762752041,0.44727574293644706
175,Pilot,d10012021,lPMys,deliberation,1.0,2.0,28.0,51.0,23.0,Gora1n.jpg,Lewib1.jpg,63.0,61.0,0.0,-1.0,0.0,23.0,51.0,6.378,2.1816739018953752,2.0,0.41639241782893044,0.288599348418517,0.12779306941041346
176,Pilot,d10012021,lPMys,deliberation,0.0,2.0,29.0,33.0,7.0,Kupc1n.jpg,Pica1n.jpg,60.0,68.0,1.0,1.0,0.0,7.0,33.0,2.018,-0.22992462440390696,-8.0,0.22470281371331025,0.7358750913549641,-0.5111722776416538
177,Pilot,d10012021,lPMys,deliberation,0.0,2.0,30.0,2.0,13.0,Dekob1.jpg,Picak1.jpg,57.0,60.0,1.0,-1.0,0.0,13.0,2.0,1.931,-0.27804597114428237,-3.0,0.03301320959769008,0.22470281371331025,-0.19168960411562017
178,Pilot,d10012021,lPMys,deliberation,1.0,2.0,31.0,5.0,37.0,Kupb1n.jpg,Mondb1.jpg,58.0,62.0,0.0,-1.0,0.0,37.0,5.0,1.65,-0.43347238992641507,-4.0,0.09690974430289681,0.3524958831237237,-0.2555861388208269
179,Pilot,d10012021,lPMys,deliberation,0.0,3.0,32.0,24.0,38.0,Dekoa1.jpg,Lasc1n.jpg,55.0,57.0,0.0,1.0,1.0,24.0,38.0,1.734,-0.3870103999701903,-2.0,-0.09477985981272337,0.03301320959769008,-0.12779306941041346
180,Pilot,d10012021,lPMys,deliberation,1.0,3.0,33.0,5.0,37.0,Kupb1n.jpg,Mondb1.jpg,58.0,62.0,0.0,-1.0,0.0,37.0,5.0,0.868,-0.866011391661745,-4.0,0.09690974430289681,0.3524958831237237,-0.2555861388208269
181,Pilot,d10012021,lPMys,deliberation,0.0,3.0,34.0,2.0,13.0,Dekob1.jpg,Picak1.jpg,57.0,60.0,0.0,-1.0,0.0,13.0,2.0,1.658,-0.4290474385020127,-3.0,0.03301320959769008,0.22470281371331025,-0.19168960411562017
182,Pilot,d10012021,lPMys,deliberation,1.0,3.0,35.0,47.0,40.0,Kupkd1.jpg,Krab1n.jpg,58.0,53.0,0.0,1.0,1.0,47.0,40.0,0.818,-0.8936673380642596,5.0,0.09690974430289681,-0.22257292922313682,0.31948267352603366
183,Pilot,d10012021,lPMys,deliberation,1.0,3.0,36.0,57.0,50.0,Lewc1n.jpg,Gorke1.jpg,43.0,56.0,0.0,1.0,1.0,57.0,50.0,0.67,-0.9755289394157032,-13.0,-0.8615382762752041,-0.030883325107516645,-0.8306549511676874
184,Pilot,d10012021,lPMys,deliberation,0.0,3.0,37.0,31.0,10.0,Maca1n.jpg,Stera1.jpg,59.0,48.0,0.0,1.0,1.0,31.0,10.0,0.744,-0.9345981387399814,11.0,0.16080627900810354,-0.5420556027491704,0.7028618817572739
185,Pilot,d10012021,lPMys,deliberation,0.0,3.0,38.0,46.0,0.0,Deka1n.jpg,Gorkc1.jpg,60.0,59.0,0.0,-1.0,0.0,0.0,46.0,1.006,-0.7896809795908043,1.0,0.22470281371331025,0.16080627900810354,0.0638965347052067
186,Pilot,d10012021,lPMys,deliberation,1.0,3.0,39.0,44.0,59.0,Lassf1.jpg,Kraa1n.jpg,61.0,60.0,0.0,1.0,0.0,59.0,44.0,0.857,-0.8720956998702981,1.0,0.288599348418517,0.22470281371331025,0.06389653470520673
187,Pilot,d10012021,lPMys,deliberation,1.0,3.0,40.0,41.0,17.0,Vincb1.jpg,Picab1.jpg,62.0,70.0,0.0,-1.0,1.0,41.0,17.0,1.881,-0.3057019175467971,-8.0,0.3524958831237237,0.8636681607653776,-0.5111722776416538
188,Pilot,d10012021,lPMys,deliberation,1.0,3.0,41.0,51.0,23.0,Gora1n.jpg,Lewib1.jpg,63.0,61.0,0.0,-1.0,0.0,23.0,51.0,0.699,-0.9594884905022447,2.0,0.41639241782893044,0.288599348418517,0.12779306941041346
189,Pilot,d10012021,lPMys,deliberation,1.0,3.0,42.0,43.0,8.0,Picac1.jpg,Klina1.jpg,67.0,39.0,0.0,-1.0,1.0,43.0,8.0,0.848,-0.8770737702227509,28.0,0.6719785566497574,-1.1171244150960309,1.7891029717457883
190,Pilot,d10012021,lPMys,deliberation,0.0,3.0,43.0,27.0,28.0,Vinb1n.jpg,Krasa1.jpg,53.0,55.0,0.0,-1.0,0.0,28.0,27.0,0.93,-0.8317180181226266,-2.0,-0.22257292922313682,-0.09477985981272337,-0.12779306941041346
191,Pilot,d10012021,lPMys,deliberation,0.0,3.0,44.0,33.0,7.0,Kupc1n.jpg,Pica1n.jpg,60.0,68.0,0.0,1.0,0.0,7.0,33.0,0.979,-0.8046151906481622,-8.0,0.22470281371331025,0.7358750913549641,-0.5111722776416538
192,Pilot,d10012021,lPMys,deliberation,0.0,3.0,45.0,56.0,22.0,Luisc1.jpg,Macb1n.jpg,54.0,41.0,0.0,-1.0,0.0,22.0,56.0,0.808,-0.8991985273447626,13.0,-0.15867639451793009,-0.9893313456856175,0.8306549511676875
193,Pilot,d10012021,lPMys,deliberation,1.0,3.0,46.0,18.0,1.0,Krasb1.jpg,Lewia1.jpg,61.0,64.0,0.0,1.0,0.0,1.0,18.0,0.942,-0.8250805909860232,-3.0,0.288599348418517,0.48028895253413717,-0.1916896041156202
194,Pilot,d10012021,lPMys,deliberation,0.0,3.0,47.0,55.0,49.0,Lewic1.jpg,Hinda1.jpg,50.0,43.0,0.0,1.0,1.0,55.0,49.0,0.806,-0.9003047652008631,7.0,-0.414262533338757,-0.8615382762752041,0.44727574293644706
195,Pilot,d09302021,d1IcC,deliberation,1.0,1.0,0.0,13.0,52.0,Picak1.jpg,Picaa1.jpg,67.0,27.0,1.0,-1.0,0.0,52.0,13.0,2.872,1.2102207894165975,40.0,1.1559055522141761,-0.24802831687186788,1.403933869086044
196,Pilot,d09302021,d1IcC,deliberation,1.0,1.0,1.0,46.0,7.0,Deka1n.jpg,Pica1n.jpg,62.0,31.0,1.0,1.0,1.0,46.0,7.0,3.443,1.8467659427745609,31.0,0.9804138185784206,-0.10763492996326349,1.088048748541684
197,Pilot,d09302021,d1IcC,deliberation,0.0,1.0,2.0,12.0,38.0,Kupkc1.jpg,Lasc1n.jpg,65.0,59.0,0.0,1.0,1.0,12.0,38.0,4.219,2.7118430688792534,6.0,1.0857088587598738,0.8751187783969673,0.2105900803629065
198,Pilot,d09302021,d1IcC,deliberation,1.0,1.0,3.0,51.0,44.0,Gora1n.jpg,Lassf1.jpg,50.0,41.0,1.0,1.0,0.0,44.0,51.0,3.074,1.4354083918304479,9.0,0.5592336578526074,0.24334853730824751,0.31588512054435985
199,Pilot,d09302021,d1IcC,deliberation,1.0,1.0,4.0,6.0,19.0,Wdekc1.jpg,Macc1n.jpg,6.0,30.0,1.0,1.0,0.0,19.0,6.0,1.156,-0.7027590409901713,-24.0,-0.985093598142041,-0.14273327669041458,-0.8423603214516264
200,Pilot,d09302021,d1IcC,deliberation,0.0,1.0,5.0,10.0,55.0,Stera1.jpg,Lewic1.jpg,11.0,51.0,0.0,-1.0,1.0,10.0,55.0,3.155,1.5257063908181798,-40.0,-0.8096018645062855,0.5943320045797585,-1.403933869086044
201,Pilot,d09302021,d1IcC,deliberation,0.0,1.0,6.0,8.0,5.0,Klina1.jpg,Kupb1n.jpg,21.0,64.0,0.0,1.0,0.0,5.0,8.0,1.741,-0.05060682607877266,-43.0,-0.4586183972347745,1.0506105120327227,-1.509228909267497
202,Pilot,d09302021,d1IcC,deliberation,0.0,1.0,7.0,22.0,15.0,Macb1n.jpg,Clia1n.jpg,25.0,32.0,0.0,1.0,1.0,22.0,15.0,2.154,0.40980148974756486,-7.0,-0.31822501032617007,-0.07253658323611238,-0.24568842709005767
203,Pilot,d09302021,d1IcC,deliberation,0.0,1.0,8.0,17.0,29.0,Picab1.jpg,Clifb1.jpg,12.0,6.0,0.0,-1.0,1.0,17.0,29.0,1.518,-0.29920502082277595,6.0,-0.7745035177791344,-0.985093598142041,0.2105900803629066
204,Pilot,d09302021,d1IcC,deliberation,1.0,1.0,9.0,37.0,23.0,Mondb1.jpg,Lewib1.jpg,7.0,7.0,1.0,-1.0,0.0,23.0,37.0,2.176,0.43432687218867755,0.0,-0.9499952514148898,-0.9499952514148898,0.0
205,Pilot,d09302021,d1IcC,deliberation,1.0,1.0,10.0,20.0,25.0,Gorc1n.jpg,Clifa1.jpg,23.0,65.0,1.0,-1.0,0.0,25.0,20.0,1.791,0.005132679469209918,-42.0,-0.3884217037804723,1.0857088587598738,-1.474130562540346
206,Pilot,d09302021,d1IcC,deliberation,0.0,1.0,11.0,33.0,32.0,Kupc1n.jpg,Macka1.jpg,4.0,33.0,0.0,-1.0,1.0,33.0,32.0,1.739,-0.052836406300691974,-29.0,-1.0552902915963431,-0.03743823650896129,-1.0178520550873817
207,Pilot,d09302021,d1IcC,deliberation,0.0,1.0,12.0,59.0,45.0,Kraa1n.jpg,Klia1n.jpg,21.0,15.0,0.0,1.0,0.0,45.0,59.0,2.157,0.41314586008044396,6.0,-0.4586183972347745,-0.6692084775976811,0.2105900803629066
208,Pilot,d09302021,d1IcC,deliberation,1.0,1.0,13.0,27.0,0.0,Vinb1n.jpg,Gorkc1.jpg,23.0,16.0,1.0,-1.0,1.0,27.0,0.0,1.725,-0.06844346785412717,7.0,-0.3884217037804723,-0.6341101308705299,0.24568842709005762
209,Pilot,d09302021,d1IcC,deliberation,1.0,1.0,14.0,3.0,53.0,Fogeg1.jpg,Gorka1.jpg,11.0,48.0,1.0,1.0,1.0,3.0,53.0,2.073,0.3195034907598328,-37.0,-0.8096018645062855,0.4890369643983052,-1.2986388289045907
210,Pilot,d09302021,d1IcC,deliberation,0.0,1.0,15.0,50.0,54.0,Gorke1.jpg,Kupka1.jpg,36.0,18.0,0.0,-1.0,0.0,54.0,50.0,3.954,2.416423689474945,18.0,0.06785680367249201,-0.5639134374162278,0.6317702410887198
211,Pilot,d09302021,d1IcC,deliberation,1.0,2.0,16.0,27.0,0.0,Vinb1n.jpg,Gorkc1.jpg,23.0,16.0,0.0,-1.0,1.0,27.0,0.0,1.323,-0.5165890924599088,7.0,-0.3884217037804723,-0.6341101308705299,0.24568842709005762
212,Pilot,d09302021,d1IcC,deliberation,0.0,2.0,17.0,22.0,15.0,Macb1n.jpg,Clia1n.jpg,25.0,32.0,1.0,1.0,1.0,22.0,15.0,1.532,-0.2835979592693407,-7.0,-0.31822501032617007,-0.07253658323611238,-0.24568842709005767
213,Pilot,d09302021,d1IcC,deliberation,1.0,2.0,18.0,37.0,23.0,Mondb1.jpg,Lewib1.jpg,7.0,7.0,0.0,-1.0,0.0,23.0,37.0,0.853,-1.040540444610947,0.0,-0.9499952514148898,-0.9499952514148898,0.0
214,Pilot,d09302021,d1IcC,deliberation,1.0,2.0,19.0,51.0,44.0,Gora1n.jpg,Lassf1.jpg,50.0,41.0,0.0,1.0,0.0,44.0,51.0,1.215,-0.6369864244435515,9.0,0.5592336578526074,0.24334853730824751,0.31588512054435985
215,Pilot,d09302021,d1IcC,deliberation,1.0,2.0,20.0,13.0,52.0,Picak1.jpg,Picaa1.jpg,67.0,27.0,0.0,-1.0,1.0,13.0,52.0,2.263,0.5313136118421673,40.0,1.1559055522141761,-0.24802831687186788,1.403933869086044
216,Pilot,d09302021,d1IcC,deliberation,1.0,2.0,21.0,3.0,53.0,Fogeg1.jpg,Gorka1.jpg,11.0,48.0,0.0,1.0,1.0,3.0,53.0,1.414,-0.4151431923625802,-37.0,-0.8096018645062855,0.4890369643983052,-1.2986388289045907
217,Pilot,d09302021,d1IcC,deliberation,1.0,2.0,22.0,6.0,19.0,Wdekc1.jpg,Macc1n.jpg,6.0,30.0,0.0,1.0,0.0,19.0,6.0,0.803,-1.0962799501589295,-24.0,-0.985093598142041,-0.14273327669041458,-0.8423603214516264
218,Pilot,d09302021,d1IcC,deliberation,0.0,2.0,23.0,12.0,38.0,Kupkc1.jpg,Lasc1n.jpg,65.0,59.0,1.0,1.0,1.0,12.0,38.0,1.313,-0.5277369935695054,6.0,1.0857088587598738,0.8751187783969673,0.2105900803629065
219,Pilot,d09302021,d1IcC,deliberation,1.0,2.0,24.0,20.0,25.0,Gorc1n.jpg,Clifa1.jpg,23.0,65.0,0.0,-1.0,0.0,25.0,20.0,0.914,-0.9725382478424078,-42.0,-0.3884217037804723,1.0857088587598738,-1.474130562540346
220,Pilot,d09302021,d1IcC,deliberation,0.0,2.0,25.0,10.0,55.0,Stera1.jpg,Lewic1.jpg,11.0,51.0,1.0,-1.0,1.0,10.0,55.0,1.038,-0.8343042740834106,-40.0,-0.8096018645062855,0.5943320045797585,-1.403933869086044
221,Pilot,d09302021,d1IcC,deliberation,0.0,2.0,26.0,59.0,45.0,Kraa1n.jpg,Klia1n.jpg,21.0,15.0,1.0,1.0,0.0,45.0,59.0,2.123,0.3752429963078159,6.0,-0.4586183972347745,-0.6692084775976811,0.2105900803629066
222,Pilot,d09302021,d1IcC,deliberation,0.0,2.0,27.0,8.0,5.0,Klina1.jpg,Kupb1n.jpg,21.0,64.0,1.0,1.0,0.0,5.0,8.0,2.465,0.7565012142560177,-43.0,-0.4586183972347745,1.0506105120327227,-1.509228909267497
223,Pilot,d09302021,d1IcC,deliberation,0.0,2.0,28.0,50.0,54.0,Gorke1.jpg,Kupka1.jpg,36.0,18.0,1.0,-1.0,1.0,50.0,54.0,4.399,2.912505288851991,18.0,0.06785680367249201,-0.5639134374162278,0.6317702410887198
224,Pilot,d09302021,d1IcC,deliberation,1.0,2.0,29.0,46.0,7.0,Deka1n.jpg,Pica1n.jpg,62.0,31.0,0.0,1.0,1.0,46.0,7.0,1.383,-0.44970168580232944,31.0,0.9804138185784206,-0.10763492996326349,1.088048748541684
225,Pilot,d09302021,d1IcC,deliberation,0.0,2.0,30.0,33.0,32.0,Kupc1n.jpg,Macka1.jpg,4.0,33.0,1.0,-1.0,1.0,33.0,32.0,1.405,-0.425176303361217,-29.0,-1.0552902915963431,-0.03743823650896129,-1.0178520550873817
226,Pilot,d09302021,d1IcC,deliberation,0.0,2.0,31.0,17.0,29.0,Picab1.jpg,Clifb1.jpg,12.0,6.0,1.0,-1.0,1.0,17.0,29.0,1.971,0.2057948994419481,6.0,-0.7745035177791344,-0.985093598142041,0.2105900803629066
227,Pilot,d09302021,d1IcC,deliberation,1.0,3.0,32.0,6.0,19.0,Wdekc1.jpg,Macc1n.jpg,6.0,30.0,0.0,1.0,0.0,19.0,6.0,2.304,0.5770200063915131,-24.0,-0.985093598142041,-0.14273327669041458,-0.8423603214516264
228,Pilot,d09302021,d1IcC,deliberation,0.0,3.0,33.0,17.0,29.0,Picab1.jpg,Clifb1.jpg,12.0,6.0,0.0,-1.0,0.0,29.0,17.0,1.257,-0.5901652397832462,6.0,-0.7745035177791344,-0.985093598142041,0.2105900803629066
229,Pilot,d09302021,d1IcC,deliberation,1.0,3.0,34.0,20.0,25.0,Gorc1n.jpg,Clifa1.jpg,23.0,65.0,0.0,-1.0,0.0,25.0,20.0,1.305,-0.5366553144571826,-42.0,-0.3884217037804723,1.0857088587598738,-1.474130562540346
230,Pilot,d09302021,d1IcC,deliberation,1.0,3.0,35.0,27.0,0.0,Vinb1n.jpg,Gorkc1.jpg,23.0,16.0,0.0,-1.0,1.0,27.0,0.0,1.33,-0.5087855616831911,7.0,-0.3884217037804723,-0.6341101308705299,0.24568842709005762
231,Pilot,d09302021,d1IcC,deliberation,1.0,3.0,36.0,51.0,44.0,Gora1n.jpg,Lassf1.jpg,50.0,41.0,0.0,1.0,0.0,44.0,51.0,0.948,-0.9346353840697796,9.0,0.5592336578526074,0.24334853730824751,0.31588512054435985
232,Pilot,d09302021,d1IcC,deliberation,1.0,3.0,37.0,37.0,23.0,Mondb1.jpg,Lewib1.jpg,7.0,7.0,0.0,-1.0,0.0,23.0,37.0,1.201,-0.6525934859969866,0.0,-0.9499952514148898,-0.9499952514148898,0.0
233,Pilot,d09302021,d1IcC,deliberation,0.0,3.0,38.0,33.0,32.0,Kupc1n.jpg,Macka1.jpg,4.0,33.0,0.0,-1.0,1.0,33.0,32.0,0.747,-1.1587081963726702,-29.0,-1.0552902915963431,-0.03743823650896129,-1.0178520550873817
234,Pilot,d09302021,d1IcC,deliberation,0.0,3.0,39.0,12.0,38.0,Kupkc1.jpg,Lasc1n.jpg,65.0,59.0,0.0,1.0,1.0,12.0,38.0,1.275,-0.5700990177859724,6.0,1.0857088587598738,0.8751187783969673,0.2105900803629065
235,Pilot,d09302021,d1IcC,deliberation,0.0,3.0,40.0,50.0,54.0,Gorke1.jpg,Kupka1.jpg,36.0,18.0,0.0,-1.0,0.0,54.0,50.0,1.582,-0.2278584537213579,18.0,0.06785680367249201,-0.5639134374162278,0.6317702410887198
236,Pilot,d09302021,d1IcC,deliberation,1.0,3.0,41.0,13.0,52.0,Picak1.jpg,Picaa1.jpg,67.0,27.0,0.0,-1.0,1.0,13.0,52.0,1.692,-0.10523154151579595,40.0,1.1559055522141761,-0.24802831687186788,1.403933869086044
237,Pilot,d09302021,d1IcC,deliberation,0.0,3.0,42.0,8.0,5.0,Klina1.jpg,Kupb1n.jpg,21.0,64.0,0.0,1.0,0.0,5.0,8.0,0.708,-1.2021850107000969,-43.0,-0.4586183972347745,1.0506105120327227,-1.509228909267497
238,Pilot,d09302021,d1IcC,deliberation,1.0,3.0,43.0,46.0,7.0,Deka1n.jpg,Pica1n.jpg,62.0,31.0,0.0,1.0,1.0,46.0,7.0,0.852,-1.0416552347219066,31.0,0.9804138185784206,-0.10763492996326349,1.088048748541684
239,Pilot,d09302021,d1IcC,deliberation,0.0,3.0,44.0,59.0,45.0,Kraa1n.jpg,Klia1n.jpg,21.0,15.0,0.0,1.0,0.0,45.0,59.0,1.136,-0.7250548432093644,6.0,-0.4586183972347745,-0.6692084775976811,0.2105900803629066
240,Pilot,d09302021,d1IcC,deliberation,0.0,3.0,45.0,10.0,55.0,Stera1.jpg,Lewic1.jpg,11.0,51.0,0.0,-1.0,1.0,10.0,55.0,1.625,-0.1799224789500928,-40.0,-0.8096018645062855,0.5943320045797585,-1.403933869086044
241,Pilot,d09302021,d1IcC,deliberation,0.0,3.0,46.0,22.0,15.0,Macb1n.jpg,Clia1n.jpg,25.0,32.0,0.0,1.0,1.0,22.0,15.0,0.992,-0.8855846191875547,-7.0,-0.31822501032617007,-0.07253658323611238,-0.24568842709005767
242,Pilot,d09302021,d1IcC,deliberation,1.0,3.0,47.0,3.0,53.0,Fogeg1.jpg,Gorka1.jpg,11.0,48.0,0.0,1.0,1.0,3.0,53.0,1.432,-0.39507697036530637,-37.0,-0.8096018645062855,0.4890369643983052,-1.2986388289045907
243,Pilot,d10012021,BAWYi,deliberation,0.0,1.0,0.0,16.0,27.0,Lewa1n.jpg,Vinb1n.jpg,39.0,55.0,0.0,-1.0,1.0,16.0,27.0,3.157,0.19116627461391159,-16.0,-0.611663374235346,0.0941020575746686,-0.7057654318100146
244,Pilot,d10012021,BAWYi,deliberation,1.0,1.0,1.0,43.0,23.0,Picac1.jpg,Lewib1.jpg,57.0,62.0,1.0,1.0,1.0,43.0,23.0,2.342,-0.24788877516570454,-5.0,0.1823227365509204,0.40287443399155,-0.22055169744062958
245,Pilot,d10012021,BAWYi,deliberation,1.0,1.0,2.0,42.0,22.0,Picc1n.jpg,Macb1n.jpg,35.0,60.0,1.0,1.0,0.0,22.0,42.0,4.805,1.0789732955179696,-25.0,-0.7881047321878496,0.31465375501529813,-1.1027584872031477
246,Pilot,d10012021,BAWYi,deliberation,1.0,1.0,3.0,36.0,0.0,Gorkf1.jpg,Gorkc1.jpg,43.0,35.0,1.0,-1.0,0.0,0.0,36.0,6.925,2.221055142797462,8.0,-0.43522201628284235,-0.7881047321878496,0.35288271590500725
247,Pilot,d10012021,BAWYi,deliberation,1.0,1.0,4.0,14.0,34.0,Kupkb1.jpg,Monb1n.jpg,67.0,47.0,1.0,-1.0,1.0,14.0,34.0,3.316,0.2768224131598734,20.0,0.6234261314321795,-0.2587806583303387,0.8822067897625182
248,Pilot,d10012021,BAWYi,deliberation,0.0,1.0,5.0,53.0,45.0,Gorka1.jpg,Klia1n.jpg,59.0,45.0,0.0,-1.0,0.0,45.0,53.0,4.965,1.1651681519164219,14.0,0.27054341552717226,-0.34700133730659055,0.6175447528337628
249,Pilot,d10012021,BAWYi,deliberation,1.0,1.0,6.0,3.0,48.0,Fogeg1.jpg,Picb1n.jpg,54.0,53.0,1.0,-1.0,1.0,3.0,48.0,9.494,3.605021305845111,1.0,0.04999171808654268,0.005881378598416767,0.04411033948812591
250,Pilot,d10012021,BAWYi,deliberation,1.0,1.0,7.0,2.0,37.0,Dekob1.jpg,Mondb1.jpg,60.0,64.0,1.0,1.0,0.0,37.0,2.0,6.573,2.0314264587208672,-4.0,0.31465375501529813,0.4910951129678018,-0.17644135795250365
251,Pilot,d10012021,BAWYi,deliberation,0.0,1.0,8.0,39.0,24.0,Dekb1n.jpg,Dekoa1.jpg,37.0,44.0,0.0,1.0,1.0,39.0,24.0,5.108,1.2422048048225385,-7.0,-0.6998840532115979,-0.3911116767947164,-0.30877237641688143
252,Pilot,d10012021,BAWYi,deliberation,1.0,1.0,9.0,49.0,17.0,Hinda1.jpg,Picab1.jpg,63.0,46.0,1.0,1.0,1.0,49.0,17.0,4.84,1.0978284203551312,17.0,0.44698477347967586,-0.3028909978184646,0.7498757712981405
253,Pilot,d10012021,BAWYi,deliberation,0.0,1.0,10.0,55.0,31.0,Lewic1.jpg,Maca1n.jpg,56.0,55.0,0.0,1.0,0.0,31.0,55.0,4.9,1.130151491504551,1.0,0.1382123970627945,0.0941020575746686,0.04411033948812591
254,Pilot,d10012021,BAWYi,deliberation,0.0,1.0,11.0,9.0,32.0,Lassc1.jpg,Macka1.jpg,47.0,55.0,0.0,-1.0,0.0,32.0,9.0,3.278,0.2563511347652411,-8.0,-0.2587806583303387,0.0941020575746686,-0.3528827159050073
255,Pilot,d10012021,BAWYi,deliberation,0.0,1.0,12.0,33.0,30.0,Kupc1n.jpg,Lasse1.jpg,73.0,51.0,0.0,1.0,1.0,33.0,30.0,3.639,0.45082827951424886,22.0,0.888088168360935,-0.08233930037783506,0.9704274687387701
256,Pilot,d10012021,BAWYi,deliberation,0.0,1.0,13.0,8.0,4.0,Klina1.jpg,Mackb1.jpg,63.0,71.0,0.0,1.0,0.0,4.0,8.0,5.855,1.644627040632813,-8.0,0.44698477347967586,0.7998674893846832,-0.35288271590500736
257,Pilot,d10012021,BAWYi,deliberation,1.0,1.0,14.0,7.0,59.0,Pica1n.jpg,Kraa1n.jpg,61.0,34.0,1.0,-1.0,0.0,59.0,7.0,3.95,0.6183695316387406,27.0,0.35876409450342406,-0.8322150716759755,1.1909791661793996
258,Pilot,d10012021,BAWYi,deliberation,0.0,1.0,15.0,15.0,13.0,Clia1n.jpg,Picak1.jpg,44.0,72.0,0.0,-1.0,0.0,13.0,15.0,3.068,0.14322038574227253,-28.0,-0.3911116767947164,0.8439778288728091,-1.2350895056675255
259,Pilot,d10012021,BAWYi,deliberation,1.0,2.0,16.0,3.0,48.0,Fogeg1.jpg,Picb1n.jpg,54.0,53.0,0.0,-1.0,1.0,3.0,48.0,2.213,-0.31738337813695666,1.0,0.04999171808654268,0.005881378598416767,0.04411033948812591
260,Pilot,d10012021,BAWYi,deliberation,1.0,2.0,17.0,49.0,17.0,Hinda1.jpg,Picab1.jpg,63.0,46.0,0.0,1.0,1.0,49.0,17.0,1.228,-0.8480204628399284,17.0,0.44698477347967586,-0.3028909978184646,0.7498757712981405
261,Pilot,d10012021,BAWYi,deliberation,1.0,2.0,18.0,14.0,34.0,Kupkb1.jpg,Monb1n.jpg,67.0,47.0,0.0,-1.0,1.0,14.0,34.0,1.575,-0.6610853680257851,20.0,0.6234261314321795,-0.2587806583303387,0.8822067897625182
262,Pilot,d10012021,BAWYi,deliberation,1.0,2.0,19.0,42.0,22.0,Picc1n.jpg,Macb1n.jpg,35.0,60.0,0.0,1.0,0.0,22.0,42.0,1.331,-0.7925325240334248,-25.0,-0.7881047321878496,0.31465375501529813,-1.1027584872031477
263,Pilot,d10012021,BAWYi,deliberation,1.0,2.0,20.0,2.0,37.0,Dekob1.jpg,Mondb1.jpg,60.0,64.0,0.0,1.0,0.0,37.0,2.0,1.287,-0.8162361095429992,-4.0,0.31465375501529813,0.4910951129678018,-0.17644135795250365
264,Pilot,d10012021,BAWYi,deliberation,1.0,2.0,21.0,7.0,59.0,Pica1n.jpg,Kraa1n.jpg,61.0,34.0,0.0,-1.0,0.0,59.0,7.0,1.437,-0.7354284316694502,27.0,0.35876409450342406,-0.8322150716759755,1.1909791661793996
265,Pilot,d10012021,BAWYi,deliberation,1.0,2.0,22.0,36.0,0.0,Gorkf1.jpg,Gorkc1.jpg,43.0,35.0,0.0,-1.0,0.0,0.0,36.0,1.454,-0.7262702281771146,8.0,-0.43522201628284235,-0.7881047321878496,0.35288271590500725
266,Pilot,d10012021,BAWYi,deliberation,0.0,2.0,23.0,15.0,13.0,Clia1n.jpg,Picak1.jpg,44.0,72.0,1.0,-1.0,0.0,13.0,15.0,1.15,-0.8900404553341739,-28.0,-0.3911116767947164,0.8439778288728091,-1.2350895056675255
267,Pilot,d10012021,BAWYi,deliberation,0.0,2.0,24.0,8.0,4.0,Klina1.jpg,Mackb1.jpg,63.0,71.0,1.0,1.0,0.0,4.0,8.0,3.005,0.10928116103538188,-8.0,0.44698477347967586,0.7998674893846832,-0.35288271590500736
268,Pilot,d10012021,BAWYi,deliberation,1.0,2.0,25.0,43.0,23.0,Picac1.jpg,Lewib1.jpg,57.0,62.0,0.0,1.0,0.0,23.0,43.0,4.268,0.7896818087306643,-5.0,0.1823227365509204,0.40287443399155,-0.22055169744062958
269,Pilot,d10012021,BAWYi,deliberation,0.0,2.0,26.0,9.0,32.0,Lassc1.jpg,Macka1.jpg,47.0,55.0,1.0,-1.0,0.0,32.0,9.0,1.543,-0.6783243393054755,-8.0,-0.2587806583303387,0.0941020575746686,-0.3528827159050073
270,Pilot,d10012021,BAWYi,deliberation,0.0,2.0,27.0,53.0,45.0,Gorka1.jpg,Klia1n.jpg,59.0,45.0,1.0,-1.0,1.0,53.0,45.0,4.092,0.6948674666923668,14.0,0.27054341552717226,-0.34700133730659055,0.6175447528337628
271,Pilot,d10012021,BAWYi,deliberation,0.0,2.0,28.0,39.0,24.0,Dekb1n.jpg,Dekoa1.jpg,37.0,44.0,1.0,1.0,1.0,39.0,24.0,2.948,0.07857424344343329,-7.0,-0.6998840532115979,-0.3911116767947164,-0.30877237641688143
272,Pilot,d10012021,BAWYi,deliberation,0.0,2.0,29.0,33.0,30.0,Kupc1n.jpg,Lasse1.jpg,73.0,51.0,1.0,1.0,1.0,33.0,30.0,1.628,-0.6325333218437978,22.0,0.888088168360935,-0.08233930037783506,0.9704274687387701
273,Pilot,d10012021,BAWYi,deliberation,0.0,2.0,30.0,16.0,27.0,Lewa1n.jpg,Vinb1n.jpg,39.0,55.0,1.0,-1.0,1.0,16.0,27.0,3.156,0.19062755676142132,-16.0,-0.611663374235346,0.0941020575746686,-0.7057654318100146
274,Pilot,d10012021,BAWYi,deliberation,0.0,2.0,31.0,55.0,31.0,Lewic1.jpg,Maca1n.jpg,56.0,55.0,1.0,1.0,0.0,31.0,55.0,2.228,-0.3093026103496017,1.0,0.1382123970627945,0.0941020575746686,0.04411033948812591
275,Pilot,d10012021,BAWYi,deliberation,1.0,3.0,32.0,42.0,22.0,Picc1n.jpg,Macb1n.jpg,35.0,60.0,0.0,1.0,0.0,22.0,42.0,1.651,-0.6201428112365203,-25.0,-0.7881047321878496,0.31465375501529813,-1.1027584872031477
276,Pilot,d10012021,BAWYi,deliberation,1.0,3.0,33.0,2.0,37.0,Dekob1.jpg,Mondb1.jpg,60.0,64.0,0.0,1.0,0.0,37.0,2.0,1.399,-0.7558997100640825,-4.0,0.31465375501529813,0.4910951129678018,-0.17644135795250365
277,Pilot,d10012021,BAWYi,deliberation,1.0,3.0,34.0,3.0,48.0,Fogeg1.jpg,Picb1n.jpg,54.0,53.0,0.0,-1.0,1.0,3.0,48.0,2.018,-0.4224333593725705,1.0,0.04999171808654268,0.005881378598416767,0.04411033948812591
278,Pilot,d10012021,BAWYi,deliberation,0.0,3.0,35.0,8.0,4.0,Klina1.jpg,Mackb1.jpg,63.0,71.0,0.0,1.0,0.0,4.0,8.0,1.75,-0.566809743839978,-8.0,0.44698477347967586,0.7998674893846832,-0.35288271590500736
279,Pilot,d10012021,BAWYi,deliberation,0.0,3.0,36.0,15.0,13.0,Clia1n.jpg,Picak1.jpg,44.0,72.0,0.0,-1.0,0.0,13.0,15.0,1.477,-0.713879717569837,-28.0,-0.3911116767947164,0.8439778288728091,-1.2350895056675255
280,Pilot,d10012021,BAWYi,deliberation,0.0,3.0,37.0,55.0,31.0,Lewic1.jpg,Maca1n.jpg,56.0,55.0,0.0,1.0,0.0,31.0,55.0,1.262,-0.8297040558552573,1.0,0.1382123970627945,0.0941020575746686,0.04411033948812591
281,Pilot,d10012021,BAWYi,deliberation,0.0,3.0,38.0,39.0,24.0,Dekb1n.jpg,Dekoa1.jpg,37.0,44.0,0.0,1.0,1.0,39.0,24.0,1.647,-0.6222976826464816,-7.0,-0.6998840532115979,-0.3911116767947164,-0.30877237641688143
282,Pilot,d10012021,BAWYi,deliberation,0.0,3.0,39.0,16.0,27.0,Lewa1n.jpg,Vinb1n.jpg,39.0,55.0,0.0,-1.0,1.0,16.0,27.0,1.374,-0.7693676563763406,-16.0,-0.611663374235346,0.0941020575746686,-0.7057654318100146
283,Pilot,d10012021,BAWYi,deliberation,1.0,3.0,40.0,36.0,0.0,Gorkf1.jpg,Gorkc1.jpg,43.0,35.0,0.0,-1.0,0.0,0.0,36.0,1.422,-0.743509199456805,8.0,-0.43522201628284235,-0.7881047321878496,0.35288271590500725
284,Pilot,d10012021,BAWYi,deliberation,1.0,3.0,41.0,7.0,59.0,Pica1n.jpg,Kraa1n.jpg,61.0,34.0,0.0,-1.0,0.0,59.0,7.0,1.407,-0.7515899672441599,27.0,0.35876409450342406,-0.8322150716759755,1.1909791661793996
285,Pilot,d10012021,BAWYi,deliberation,1.0,3.0,42.0,14.0,34.0,Kupkb1.jpg,Monb1n.jpg,67.0,47.0,0.0,-1.0,1.0,14.0,34.0,1.653,-0.6190653755315396,20.0,0.6234261314321795,-0.2587806583303387,0.8822067897625182
286,Pilot,d10012021,BAWYi,deliberation,0.0,3.0,43.0,53.0,45.0,Gorka1.jpg,Klia1n.jpg,59.0,45.0,0.0,-1.0,1.0,53.0,45.0,1.278,-0.821084570215412,14.0,0.27054341552717226,-0.34700133730659055,0.6175447528337628
287,Pilot,d10012021,BAWYi,deliberation,0.0,3.0,44.0,9.0,32.0,Lassc1.jpg,Macka1.jpg,47.0,55.0,0.0,-1.0,0.0,32.0,9.0,1.141,-0.8948889160065868,-8.0,-0.2587806583303387,0.0941020575746686,-0.3528827159050073
288,Pilot,d10012021,BAWYi,deliberation,1.0,3.0,45.0,49.0,17.0,Hinda1.jpg,Picab1.jpg,63.0,46.0,0.0,1.0,1.0,49.0,17.0,1.671,-0.6093684541867137,17.0,0.44698477347967586,-0.3028909978184646,0.7498757712981405
289,Pilot,d10012021,BAWYi,deliberation,0.0,3.0,46.0,33.0,30.0,Kupc1n.jpg,Lasse1.jpg,73.0,51.0,0.0,1.0,1.0,33.0,30.0,1.1,-0.9169763479586901,22.0,0.888088168360935,-0.08233930037783506,0.9704274687387701
290,Pilot,d10012021,BAWYi,deliberation,1.0,3.0,47.0,43.0,23.0,Picac1.jpg,Lewib1.jpg,57.0,62.0,0.0,1.0,0.0,23.0,43.0,1.495,-0.7041827962250111,-5.0,0.1823227365509204,0.40287443399155,-0.22055169744062958
291,Pilot,d10012021,Kmecz,deliberation,0.0,1.0,0.0,58.0,49.0,Mackc1.jpg,Hinda1.jpg,61.0,64.0,0.0,-1.0,1.0,58.0,49.0,1.106,-0.24901557246107114,-3.0,0.49119642202310154,0.6785170914386911,-0.18732066941558956
292,Pilot,d10012021,Kmecz,deliberation,0.0,1.0,1.0,47.0,4.0,Kupkd1.jpg,Mackb1.jpg,68.0,57.0,0.0,1.0,0.0,4.0,47.0,1.073,-0.29043101416396266,11.0,0.9282779839928105,0.2414355294689821,0.6868424545238283
293,Pilot,d10012021,Kmecz,deliberation,1.0,1.0,2.0,29.0,54.0,Clifb1.jpg,Kupka1.jpg,61.0,60.0,1.0,1.0,0.0,54.0,29.0,0.8,-0.6330496682515182,1.0,0.49119642202310154,0.42875619888457167,0.06244022313852987
294,Pilot,d10012021,Kmecz,deliberation,1.0,1.0,3.0,55.0,59.0,Lewic1.jpg,Kraa1n.jpg,61.0,63.0,1.0,-1.0,0.0,59.0,55.0,0.995,-0.3883220581889785,-2.0,0.49119642202310154,0.6160768683001612,-0.12488044627705963
295,Pilot,d10012021,Kmecz,deliberation,1.0,1.0,4.0,42.0,15.0,Picc1n.jpg,Clia1n.jpg,34.0,66.0,1.0,-1.0,1.0,42.0,15.0,1.373,0.08607300131686774,-32.0,-1.1946896027172045,0.8033975377157507,-1.9980871404329552
296,Pilot,d10012021,Kmecz,deliberation,0.0,1.0,5.0,34.0,9.0,Monb1n.jpg,Lassc1.jpg,63.0,59.0,0.0,-1.0,0.0,9.0,34.0,5.63,5.428664980989851,4.0,0.6160768683001612,0.3663159757460418,0.24976089255411937
297,Pilot,d10012021,Kmecz,deliberation,0.0,1.0,6.0,2.0,53.0,Dekob1.jpg,Gorka1.jpg,62.0,38.0,0.0,1.0,1.0,2.0,53.0,1.42,0.1450586304088644,24.0,0.5536366451616314,-0.9449287101630851,1.4985653553247165
298,Pilot,d10012021,Kmecz,deliberation,0.0,1.0,7.0,5.0,46.0,Kupb1n.jpg,Deka1n.jpg,67.0,39.0,0.0,1.0,0.0,46.0,5.0,0.953,-0.4410326203562948,28.0,0.8658377608542807,-0.8824884870245552,1.7483262478788357
299,Pilot,d10012021,Kmecz,deliberation,1.0,1.0,8.0,19.0,14.0,Macc1n.jpg,Kupkb1.jpg,39.0,62.0,1.0,1.0,1.0,19.0,14.0,1.086,-0.2741158401597932,-23.0,-0.8824884870245552,0.5536366451616314,-1.4361251321861865
300,Pilot,d10012021,Kmecz,deliberation,1.0,1.0,9.0,37.0,26.0,Mondb1.jpg,Clib1n.jpg,61.0,58.0,1.0,1.0,1.0,37.0,26.0,1.155,-0.18751991659920228,3.0,0.49119642202310154,0.303875752607512,0.18732066941558956
301,Pilot,d10012021,Kmecz,deliberation,1.0,1.0,10.0,22.0,57.0,Macb1n.jpg,Lewc1n.jpg,58.0,59.0,1.0,-1.0,0.0,57.0,22.0,2.903,2.0062434802691027,-1.0,0.303875752607512,0.3663159757460418,-0.062440223138529816
302,Pilot,d10012021,Kmecz,deliberation,0.0,1.0,11.0,18.0,27.0,Krasb1.jpg,Vinb1n.jpg,64.0,62.0,0.0,-1.0,1.0,18.0,27.0,1.062,-0.30423616139825965,2.0,0.6785170914386911,0.5536366451616314,0.12488044627705974
303,Pilot,d10012021,Kmecz,deliberation,1.0,1.0,12.0,31.0,11.0,Maca1n.jpg,Wdekb1.jpg,35.0,63.0,1.0,1.0,1.0,31.0,11.0,0.938,-0.45985782113033635,-28.0,-1.1322493795786746,0.6160768683001612,-1.7483262478788357
304,Pilot,d10012021,Kmecz,deliberation,0.0,1.0,13.0,17.0,45.0,Picab1.jpg,Klia1n.jpg,35.0,34.0,0.0,-1.0,1.0,17.0,45.0,1.18,-0.15614458197579986,1.0,-1.1322493795786746,-1.1946896027172045,0.06244022313852993
305,Pilot,d10012021,Kmecz,deliberation,1.0,1.0,14.0,43.0,39.0,Picac1.jpg,Dekb1n.jpg,35.0,39.0,1.0,-1.0,1.0,43.0,39.0,1.052,-0.3167862952476207,-4.0,-1.1322493795786746,-0.8824884870245552,-0.24976089255411937
306,Pilot,d10012021,Kmecz,deliberation,0.0,1.0,15.0,41.0,33.0,Vincb1.jpg,Kupc1n.jpg,37.0,66.0,0.0,1.0,0.0,33.0,41.0,1.792,0.6119236096050942,-29.0,-1.007368933301615,0.8033975377157507,-1.8107664710173657
307,Pilot,d10012021,Kmecz,deliberation,0.0,2.0,16.0,34.0,9.0,Monb1n.jpg,Lassc1.jpg,63.0,59.0,1.0,-1.0,0.0,9.0,34.0,0.899,-0.5088033431428441,4.0,0.6160768683001612,0.3663159757460418,0.24976089255411937
308,Pilot,d10012021,Kmecz,deliberation,0.0,2.0,17.0,18.0,27.0,Krasb1.jpg,Vinb1n.jpg,64.0,62.0,1.0,-1.0,1.0,18.0,27.0,1.572,0.33582066491915197,2.0,0.6785170914386911,0.5536366451616314,0.12488044627705974
309,Pilot,d10012021,Kmecz,deliberation,1.0,2.0,18.0,29.0,54.0,Clifb1.jpg,Kupka1.jpg,61.0,60.0,0.0,1.0,0.0,54.0,29.0,1.179,-0.15739959536073583,1.0,0.49119642202310154,0.42875619888457167,0.06244022313852987
310,Pilot,d10012021,Kmecz,deliberation,1.0,2.0,19.0,19.0,14.0,Macc1n.jpg,Kupkb1.jpg,39.0,62.0,0.0,1.0,1.0,19.0,14.0,1.17,-0.16869471582516088,-23.0,-0.8824884870245552,0.5536366451616314,-1.4361251321861865
311,Pilot,d10012021,Kmecz,deliberation,1.0,2.0,20.0,55.0,59.0,Lewic1.jpg,Kraa1n.jpg,61.0,63.0,0.0,-1.0,0.0,59.0,55.0,1.283,-0.026878203327381466,-2.0,0.49119642202310154,0.6160768683001612,-0.12488044627705963
312,Pilot,d10012021,Kmecz,deliberation,1.0,2.0,21.0,43.0,39.0,Picac1.jpg,Dekb1n.jpg,35.0,39.0,0.0,-1.0,1.0,43.0,39.0,0.724,-0.728430685506662,-4.0,-1.1322493795786746,-0.8824884870245552,-0.24976089255411937
313,Pilot,d10012021,Kmecz,deliberation,0.0,2.0,22.0,58.0,49.0,Mackc1.jpg,Hinda1.jpg,61.0,64.0,1.0,-1.0,1.0,58.0,49.0,1.428,0.15509873748835323,-3.0,0.49119642202310154,0.6785170914386911,-0.18732066941558956
314,Pilot,d10012021,Kmecz,deliberation,0.0,2.0,23.0,5.0,46.0,Kupb1n.jpg,Deka1n.jpg,67.0,39.0,1.0,1.0,0.0,46.0,5.0,1.857,0.6934994796259407,28.0,0.8658377608542807,-0.8824884870245552,1.7483262478788357
315,Pilot,d10012021,Kmecz,deliberation,1.0,2.0,24.0,22.0,57.0,Macb1n.jpg,Lewc1n.jpg,58.0,59.0,0.0,-1.0,0.0,57.0,22.0,1.957,0.8190008181195509,-1.0,0.303875752607512,0.3663159757460418,-0.062440223138529816
316,Pilot,d10012021,Kmecz,deliberation,0.0,2.0,25.0,17.0,45.0,Picab1.jpg,Klia1n.jpg,35.0,34.0,1.0,-1.0,1.0,17.0,45.0,1.232,-0.09088388595912254,1.0,-1.1322493795786746,-1.1946896027172045,0.06244022313852993
317,Pilot,d10012021,Kmecz,deliberation,1.0,2.0,26.0,31.0,11.0,Maca1n.jpg,Wdekb1.jpg,35.0,63.0,0.0,1.0,1.0,31.0,11.0,2.072,0.9633273573872025,-28.0,-1.1322493795786746,0.6160768683001612,-1.7483262478788357
318,Pilot,d10012021,Kmecz,deliberation,0.0,2.0,27.0,47.0,4.0,Kupkd1.jpg,Mackb1.jpg,68.0,57.0,1.0,1.0,0.0,4.0,47.0,2.0,0.8729663936718032,11.0,0.9282779839928105,0.2414355294689821,0.6868424545238283
319,Pilot,d10012021,Kmecz,deliberation,1.0,2.0,28.0,42.0,15.0,Picc1n.jpg,Clia1n.jpg,34.0,66.0,0.0,-1.0,1.0,42.0,15.0,1.783,0.6006284891406691,-32.0,-1.1946896027172045,0.8033975377157507,-1.9980871404329552
320,Pilot,d10012021,Kmecz,deliberation,0.0,2.0,29.0,41.0,33.0,Vincb1.jpg,Kupc1n.jpg,37.0,66.0,1.0,1.0,0.0,33.0,41.0,1.187,-0.147359488281247,-29.0,-1.007368933301615,0.8033975377157507,-1.8107664710173657
321,Pilot,d10012021,Kmecz,deliberation,1.0,2.0,30.0,37.0,26.0,Mondb1.jpg,Clib1n.jpg,61.0,58.0,0.0,1.0,1.0,37.0,26.0,1.452,0.18521905872681968,3.0,0.49119642202310154,0.303875752607512,0.18732066941558956
322,Pilot,d10012021,Kmecz,deliberation,0.0,2.0,31.0,2.0,53.0,Dekob1.jpg,Gorka1.jpg,62.0,38.0,1.0,1.0,1.0,2.0,53.0,1.266,-0.048213430871295065,24.0,0.5536366451616314,-0.9449287101630851,1.4985653553247165
323,Pilot,d10012021,Kmecz,deliberation,0.0,3.0,32.0,34.0,9.0,Monb1n.jpg,Lassc1.jpg,63.0,59.0,0.0,-1.0,0.0,9.0,34.0,1.277,-0.03440828363699808,4.0,0.6160768683001612,0.3663159757460418,0.24976089255411937
324,Pilot,d10012021,Kmecz,deliberation,1.0,3.0,33.0,37.0,26.0,Mondb1.jpg,Clib1n.jpg,61.0,58.0,0.0,1.0,1.0,37.0,26.0,1.001,-0.38079197787936203,3.0,0.49119642202310154,0.303875752607512,0.18732066941558956
325,Pilot,d10012021,Kmecz,deliberation,1.0,3.0,34.0,43.0,39.0,Picac1.jpg,Dekb1n.jpg,35.0,39.0,0.0,-1.0,1.0,43.0,39.0,1.095,-0.2628207196953684,-4.0,-1.1322493795786746,-0.8824884870245552,-0.24976089255411937
326,Pilot,d10012021,Kmecz,deliberation,1.0,3.0,35.0,19.0,14.0,Macc1n.jpg,Kupkb1.jpg,39.0,62.0,0.0,1.0,1.0,19.0,14.0,0.644,-0.82883175630155,-23.0,-0.8824884870245552,0.5536366451616314,-1.4361251321861865
327,Pilot,d10012021,Kmecz,deliberation,0.0,3.0,36.0,58.0,49.0,Mackc1.jpg,Hinda1.jpg,61.0,64.0,0.0,-1.0,1.0,58.0,49.0,0.922,-0.47993803528931384,-3.0,0.49119642202310154,0.6785170914386911,-0.18732066941558956
328,Pilot,d10012021,Kmecz,deliberation,1.0,3.0,37.0,29.0,54.0,Clifb1.jpg,Kupka1.jpg,61.0,60.0,0.0,1.0,0.0,54.0,29.0,0.615,-0.865227144464697,1.0,0.49119642202310154,0.42875619888457167,0.06244022313852987
329,Pilot,d10012021,Kmecz,deliberation,0.0,3.0,38.0,2.0,53.0,Dekob1.jpg,Gorka1.jpg,62.0,38.0,0.0,1.0,1.0,2.0,53.0,0.633,-0.8426369035358471,24.0,0.5536366451616314,-0.9449287101630851,1.4985653553247165
330,Pilot,d10012021,Kmecz,deliberation,0.0,3.0,39.0,5.0,46.0,Kupb1n.jpg,Deka1n.jpg,67.0,39.0,0.0,1.0,0.0,46.0,5.0,0.856,-0.5627689186950966,28.0,0.8658377608542807,-0.8824884870245552,1.7483262478788357
331,Pilot,d10012021,Kmecz,deliberation,1.0,3.0,40.0,22.0,57.0,Macb1n.jpg,Lewc1n.jpg,58.0,59.0,0.0,-1.0,0.0,57.0,22.0,0.763,-0.679485163494154,-1.0,0.303875752607512,0.3663159757460418,-0.062440223138529816
332,Pilot,d10012021,Kmecz,deliberation,0.0,3.0,41.0,18.0,27.0,Krasb1.jpg,Vinb1n.jpg,64.0,62.0,0.0,-1.0,1.0,18.0,27.0,2.335,1.293395877625397,2.0,0.6785170914386911,0.5536366451616314,0.12488044627705974
333,Pilot,d10012021,Kmecz,deliberation,0.0,3.0,42.0,47.0,4.0,Kupkd1.jpg,Mackb1.jpg,68.0,57.0,0.0,1.0,0.0,4.0,47.0,0.694,-0.766081087054745,11.0,0.9282779839928105,0.2414355294689821,0.6868424545238283
334,Pilot,d10012021,Kmecz,deliberation,0.0,3.0,43.0,41.0,33.0,Vincb1.jpg,Kupc1n.jpg,37.0,66.0,0.0,1.0,0.0,33.0,41.0,1.019,-0.3582017369505122,-29.0,-1.007368933301615,0.8033975377157507,-1.8107664710173657
335,Pilot,d10012021,Kmecz,deliberation,1.0,3.0,44.0,42.0,15.0,Picc1n.jpg,Clia1n.jpg,34.0,66.0,0.0,-1.0,1.0,42.0,15.0,0.693,-0.7673361004396811,-32.0,-1.1946896027172045,0.8033975377157507,-1.9980871404329552
336,Pilot,d10012021,Kmecz,deliberation,1.0,3.0,45.0,31.0,11.0,Maca1n.jpg,Wdekb1.jpg,35.0,63.0,0.0,1.0,1.0,31.0,11.0,0.826,-0.6004193202431797,-28.0,-1.1322493795786746,0.6160768683001612,-1.7483262478788357
337,Pilot,d10012021,Kmecz,deliberation,0.0,3.0,46.0,17.0,45.0,Picab1.jpg,Klia1n.jpg,35.0,34.0,0.0,-1.0,1.0,17.0,45.0,0.791,-0.6443447887159431,1.0,-1.1322493795786746,-1.1946896027172045,0.06244022313852993
338,Pilot,d10012021,Kmecz,deliberation,1.0,3.0,47.0,55.0,59.0,Lewic1.jpg,Kraa1n.jpg,61.0,63.0,0.0,-1.0,0.0,59.0,55.0,0.869,-0.5464537446909272,-2.0,0.49119642202310154,0.6160768683001612,-0.12488044627705963
339,Pilot,d10012021,OH30k,deliberation,1.0,1.0,0.0,31.0,43.0,Maca1n.jpg,Picac1.jpg,18.0,16.0,1.0,1.0,0.0,43.0,31.0,3.202,2.7933384472174465,2.0,-0.2676281010478339,-0.4250563957818539,0.15742829473401998
340,Pilot,d10012021,OH30k,deliberation,1.0,1.0,1.0,25.0,38.0,Clifa1.jpg,Lasc1n.jpg,21.0,19.0,1.0,-1.0,1.0,25.0,38.0,2.434,1.5961933984099694,2.0,-0.031485658946803885,-0.1889139536808239,0.15742829473402
341,Pilot,d10012021,OH30k,deliberation,0.0,1.0,2.0,39.0,34.0,Dekb1n.jpg,Monb1n.jpg,17.0,19.0,0.0,1.0,0.0,34.0,39.0,2.363,1.4855198326999028,-2.0,-0.3463422484148439,-0.1889139536808239,-0.15742829473402
342,Pilot,d10012021,OH30k,deliberation,0.0,1.0,3.0,51.0,14.0,Gora1n.jpg,Kupkb1.jpg,21.0,23.0,0.0,-1.0,0.0,14.0,51.0,2.397,1.5385184416314837,-2.0,-0.031485658946803885,0.12594263578721612,-0.15742829473402
343,Pilot,d10012021,OH30k,deliberation,0.0,1.0,4.0,33.0,11.0,Kupc1n.jpg,Wdekb1.jpg,21.0,19.0,0.0,1.0,1.0,33.0,11.0,1.868,0.7139224379607088,2.0,-0.031485658946803885,-0.1889139536808239,0.15742829473402
344,Pilot,d10012021,OH30k,deliberation,1.0,1.0,5.0,6.0,50.0,Wdekc1.jpg,Gorke1.jpg,17.0,20.0,1.0,-1.0,0.0,50.0,6.0,2.108,1.0880302657130454,-3.0,-0.3463422484148439,-0.11019980631381389,-0.23614244210103003
345,Pilot,d10012021,OH30k,deliberation,0.0,1.0,6.0,4.0,54.0,Mackb1.jpg,Kupka1.jpg,23.0,17.0,0.0,-1.0,0.0,54.0,4.0,1.515,0.16367217464164657,6.0,0.12594263578721612,-0.3463422484148439,0.47228488420206005
346,Pilot,d10012021,OH30k,deliberation,0.0,1.0,7.0,17.0,47.0,Picab1.jpg,Kupkd1.jpg,23.0,18.0,0.0,-1.0,1.0,17.0,47.0,1.386,-0.037410782775234394,5.0,0.12594263578721612,-0.2676281010478339,0.39357073683505006
347,Pilot,d10012021,OH30k,deliberation,0.0,1.0,8.0,44.0,27.0,Lassf1.jpg,Vinb1n.jpg,19.0,17.0,0.0,1.0,1.0,44.0,27.0,1.85,0.6858643508792834,2.0,-0.1889139536808239,-0.3463422484148439,0.15742829473402
348,Pilot,d10012021,OH30k,deliberation,1.0,1.0,9.0,12.0,2.0,Kupkc1.jpg,Dekob1.jpg,17.0,17.0,1.0,-1.0,0.0,2.0,12.0,2.061,1.0147674827782125,0.0,-0.3463422484148439,-0.3463422484148439,0.0
349,Pilot,d10012021,OH30k,deliberation,1.0,1.0,10.0,59.0,48.0,Kraa1n.jpg,Picb1n.jpg,17.0,20.0,1.0,1.0,1.0,59.0,48.0,1.539,0.20108295741688026,-3.0,-0.3463422484148439,-0.11019980631381389,-0.23614244210103003
350,Pilot,d10012021,OH30k,deliberation,1.0,1.0,11.0,55.0,46.0,Lewic1.jpg,Deka1n.jpg,16.0,17.0,1.0,1.0,1.0,55.0,46.0,1.298,-0.17458365295109093,-1.0,-0.4250563957818539,-0.3463422484148439,-0.07871414736700999
351,Pilot,d10012021,OH30k,deliberation,0.0,1.0,12.0,58.0,18.0,Mackc1.jpg,Krasb1.jpg,24.0,19.0,0.0,-1.0,1.0,58.0,18.0,1.658,0.38657808867741383,5.0,0.2046567831542261,-0.1889139536808239,0.39357073683505
352,Pilot,d10012021,OH30k,deliberation,1.0,1.0,13.0,32.0,22.0,Macka1.jpg,Macb1n.jpg,19.0,23.0,1.0,1.0,1.0,32.0,22.0,2.346,1.4590205282341124,-4.0,-0.1889139536808239,0.12594263578721612,-0.31485658946804
353,Pilot,d10012021,OH30k,deliberation,0.0,1.0,14.0,5.0,53.0,Kupb1n.jpg,Gorka1.jpg,22.0,18.0,0.0,1.0,1.0,5.0,53.0,1.491,0.12626139186641322,4.0,0.04722848842020611,-0.2676281010478339,0.31485658946804
354,Pilot,d10012021,OH30k,deliberation,1.0,1.0,15.0,37.0,49.0,Mondb1.jpg,Hinda1.jpg,20.0,20.0,1.0,-1.0,0.0,49.0,37.0,1.995,0.9118878301463202,0.0,-0.11019980631381389,-0.11019980631381389,0.0
355,Pilot,d10012021,OH30k,deliberation,0.0,2.0,16.0,44.0,27.0,Lassf1.jpg,Vinb1n.jpg,19.0,17.0,1.0,1.0,1.0,44.0,27.0,1.395,-0.02338173923452158,2.0,-0.1889139536808239,-0.3463422484148439,0.15742829473402
356,Pilot,d10012021,OH30k,deliberation,1.0,2.0,17.0,59.0,48.0,Kraa1n.jpg,Picb1n.jpg,17.0,20.0,0.0,1.0,1.0,59.0,48.0,1.427,0.02649930446579002,-3.0,-0.3463422484148439,-0.11019980631381389,-0.23614244210103003
357,Pilot,d10012021,OH30k,deliberation,0.0,2.0,18.0,17.0,47.0,Picab1.jpg,Kupkd1.jpg,23.0,18.0,1.0,-1.0,1.0,17.0,47.0,0.907,-0.7840676556642727,5.0,0.12594263578721612,-0.2676281010478339,0.39357073683505006
358,Pilot,d10012021,OH30k,deliberation,0.0,2.0,19.0,51.0,14.0,Gora1n.jpg,Kupkb1.jpg,21.0,23.0,1.0,-1.0,0.0,14.0,51.0,1.803,0.6126015679444506,-2.0,-0.031485658946803885,0.12594263578721612,-0.15742829473402
359,Pilot,d10012021,OH30k,deliberation,1.0,2.0,20.0,55.0,46.0,Lewic1.jpg,Deka1n.jpg,16.0,17.0,0.0,1.0,1.0,55.0,46.0,0.691,-1.120764700641376,-1.0,-0.4250563957818539,-0.3463422484148439,-0.07871414736700999
360,Pilot,d10012021,OH30k,deliberation,0.0,2.0,21.0,39.0,34.0,Dekb1n.jpg,Monb1n.jpg,17.0,19.0,1.0,1.0,0.0,34.0,39.0,2.252,1.3124949623644468,-2.0,-0.3463422484148439,-0.1889139536808239,-0.15742829473402
361,Pilot,d10012021,OH30k,deliberation,1.0,2.0,22.0,25.0,38.0,Clifa1.jpg,Lasc1n.jpg,21.0,19.0,0.0,-1.0,1.0,25.0,38.0,1.235,-0.27278695773607925,2.0,-0.031485658946803885,-0.1889139536808239,0.15742829473402
362,Pilot,d10012021,OH30k,deliberation,0.0,2.0,23.0,4.0,54.0,Mackb1.jpg,Kupka1.jpg,23.0,17.0,1.0,-1.0,0.0,54.0,4.0,1.019,-0.6094840027131825,6.0,0.12594263578721612,-0.3463422484148439,0.47228488420206005
363,Pilot,d10012021,OH30k,deliberation,1.0,2.0,24.0,32.0,22.0,Macka1.jpg,Macb1n.jpg,19.0,23.0,0.0,1.0,0.0,22.0,32.0,2.139,1.1363525267977217,-4.0,-0.1889139536808239,0.12594263578721612,-0.31485658946804
364,Pilot,d10012021,OH30k,deliberation,0.0,2.0,25.0,5.0,53.0,Kupb1n.jpg,Gorka1.jpg,22.0,18.0,1.0,1.0,1.0,5.0,53.0,0.996,-0.6453360028727813,4.0,0.04722848842020611,-0.2676281010478339,0.31485658946804
365,Pilot,d10012021,OH30k,deliberation,1.0,2.0,26.0,12.0,2.0,Kupkc1.jpg,Dekob1.jpg,17.0,17.0,0.0,-1.0,0.0,2.0,12.0,1.658,0.38657808867741383,0.0,-0.3463422484148439,-0.3463422484148439,0.0
366,Pilot,d10012021,OH30k,deliberation,1.0,2.0,27.0,37.0,49.0,Mondb1.jpg,Hinda1.jpg,20.0,20.0,0.0,-1.0,0.0,49.0,37.0,0.97,-0.6858643508792844,0.0,-0.11019980631381389,-0.11019980631381389,0.0
367,Pilot,d10012021,OH30k,deliberation,1.0,2.0,28.0,6.0,50.0,Wdekc1.jpg,Gorke1.jpg,17.0,20.0,0.0,-1.0,0.0,50.0,6.0,0.858,-0.8604480038303749,-3.0,-0.3463422484148439,-0.11019980631381389,-0.23614244210103003
368,Pilot,d10012021,OH30k,deliberation,1.0,2.0,29.0,31.0,43.0,Maca1n.jpg,Picac1.jpg,18.0,16.0,0.0,1.0,0.0,43.0,31.0,0.995,-0.6468947854884161,2.0,-0.2676281010478339,-0.4250563957818539,0.15742829473401998
369,Pilot,d10012021,OH30k,deliberation,0.0,2.0,30.0,58.0,18.0,Mackc1.jpg,Krasb1.jpg,24.0,19.0,1.0,-1.0,0.0,18.0,58.0,2.779,2.133973400803953,5.0,0.2046567831542261,-0.1889139536808239,0.39357073683505
370,Pilot,d10012021,OH30k,deliberation,0.0,2.0,31.0,33.0,11.0,Kupc1n.jpg,Wdekb1.jpg,21.0,19.0,1.0,1.0,1.0,33.0,11.0,1.538,0.1995241748012457,2.0,-0.031485658946803885,-0.1889139536808239,0.15742829473402
371,Pilot,d10012021,OH30k,deliberation,0.0,3.0,32.0,17.0,47.0,Picab1.jpg,Kupkd1.jpg,23.0,18.0,0.0,-1.0,1.0,17.0,47.0,1.039,-0.5783083504004878,5.0,0.12594263578721612,-0.2676281010478339,0.39357073683505006
372,Pilot,d10012021,OH30k,deliberation,1.0,3.0,33.0,37.0,49.0,Mondb1.jpg,Hinda1.jpg,20.0,20.0,0.0,-1.0,0.0,49.0,37.0,0.834,-0.8978587866056086,0.0,-0.11019980631381389,-0.11019980631381389,0.0
373,Pilot,d10012021,OH30k,deliberation,0.0,3.0,34.0,5.0,53.0,Kupb1n.jpg,Gorka1.jpg,22.0,18.0,0.0,1.0,1.0,5.0,53.0,0.633,-1.2111740923481904,4.0,0.04722848842020611,-0.2676281010478339,0.31485658946804
374,Pilot,d10012021,OH30k,deliberation,1.0,3.0,35.0,12.0,2.0,Kupkc1.jpg,Dekob1.jpg,17.0,17.0,0.0,-1.0,0.0,2.0,12.0,1.003,-0.6344245245633383,0.0,-0.3463422484148439,-0.3463422484148439,0.0
375,Pilot,d10012021,OH30k,deliberation,0.0,3.0,36.0,51.0,14.0,Gora1n.jpg,Kupkb1.jpg,21.0,23.0,0.0,-1.0,0.0,14.0,51.0,0.746,-1.0350316567814652,-2.0,-0.031485658946803885,0.12594263578721612,-0.15742829473402
376,Pilot,d10012021,OH30k,deliberation,1.0,3.0,37.0,55.0,46.0,Lewic1.jpg,Deka1n.jpg,16.0,17.0,0.0,1.0,1.0,55.0,46.0,0.614,-1.2407909620452504,-1.0,-0.4250563957818539,-0.3463422484148439,-0.07871414736700999
377,Pilot,d10012021,OH30k,deliberation,1.0,3.0,38.0,32.0,22.0,Macka1.jpg,Macb1n.jpg,19.0,23.0,0.0,1.0,0.0,22.0,32.0,0.715,-1.0833539178661422,-4.0,-0.1889139536808239,0.12594263578721612,-0.31485658946804
378,Pilot,d10012021,OH30k,deliberation,0.0,3.0,39.0,4.0,54.0,Mackb1.jpg,Kupka1.jpg,23.0,17.0,0.0,-1.0,0.0,54.0,4.0,0.906,-0.7856264382799075,6.0,0.12594263578721612,-0.3463422484148439,0.47228488420206005
379,Pilot,d10012021,OH30k,deliberation,1.0,3.0,40.0,25.0,38.0,Clifa1.jpg,Lasc1n.jpg,21.0,19.0,0.0,-1.0,1.0,25.0,38.0,0.713,-1.0864714830974116,2.0,-0.031485658946803885,-0.1889139536808239,0.15742829473402
380,Pilot,d10012021,OH30k,deliberation,1.0,3.0,41.0,31.0,43.0,Maca1n.jpg,Picac1.jpg,18.0,16.0,0.0,1.0,0.0,43.0,31.0,0.987,-0.6593650464134939,2.0,-0.2676281010478339,-0.4250563957818539,0.15742829473401998
381,Pilot,d10012021,OH30k,deliberation,1.0,3.0,42.0,59.0,48.0,Kraa1n.jpg,Picb1n.jpg,17.0,20.0,0.0,1.0,1.0,59.0,48.0,0.988,-0.6578062637978592,-3.0,-0.3463422484148439,-0.11019980631381389,-0.23614244210103003
382,Pilot,d10012021,OH30k,deliberation,0.0,3.0,43.0,44.0,27.0,Lassf1.jpg,Vinb1n.jpg,19.0,17.0,0.0,1.0,1.0,44.0,27.0,0.912,-0.776273742586099,2.0,-0.1889139536808239,-0.3463422484148439,0.15742829473402
383,Pilot,d10012021,OH30k,deliberation,0.0,3.0,44.0,39.0,34.0,Dekb1n.jpg,Monb1n.jpg,17.0,19.0,0.0,1.0,0.0,34.0,39.0,0.953,-0.7123636553450751,-2.0,-0.3463422484148439,-0.1889139536808239,-0.15742829473402
384,Pilot,d10012021,OH30k,deliberation,0.0,3.0,45.0,33.0,11.0,Kupc1n.jpg,Wdekb1.jpg,21.0,19.0,0.0,1.0,1.0,33.0,11.0,0.746,-1.0350316567814652,2.0,-0.031485658946803885,-0.1889139536808239,0.15742829473402
385,Pilot,d10012021,OH30k,deliberation,1.0,3.0,46.0,6.0,50.0,Wdekc1.jpg,Gorke1.jpg,17.0,20.0,0.0,-1.0,0.0,50.0,6.0,0.763,-1.0085323523156748,-3.0,-0.3463422484148439,-0.11019980631381389,-0.23614244210103003
386,Pilot,d10012021,OH30k,deliberation,0.0,3.0,47.0,58.0,18.0,Mackc1.jpg,Krasb1.jpg,24.0,19.0,0.0,-1.0,0.0,18.0,58.0,0.955,-0.7092460901138056,5.0,0.2046567831542261,-0.1889139536808239,0.39357073683505
387,Pilot,d09302021,c4z0I,deliberation,0.0,1.0,0.0,44.0,13.0,Lassf1.jpg,Picak1.jpg,36.0,65.0,0.0,1.0,0.0,13.0,44.0,3.593,2.7789126090925955,-29.0,-0.8686770394042018,0.46774917506380087,-1.3364262144680028
388,Pilot,d09302021,c4z0I,deliberation,1.0,1.0,1.0,33.0,12.0,Kupc1n.jpg,Kupkc1.jpg,77.0,74.0,1.0,1.0,1.0,33.0,12.0,1.913,0.5891503280064975,3.0,1.0207531258781468,0.8825021381745604,0.13825098770358646
389,Pilot,d09302021,c4z0I,deliberation,0.0,1.0,2.0,31.0,0.0,Maca1n.jpg,Gorkc1.jpg,64.0,37.0,0.0,1.0,1.0,31.0,0.0,2.744,1.6723005991865856,27.0,0.4216655124959387,-0.8225933768363397,1.2442588893322784
390,Pilot,d09302021,c4z0I,deliberation,1.0,1.0,3.0,20.0,48.0,Gorc1n.jpg,Picb1n.jpg,45.0,38.0,1.0,1.0,0.0,48.0,20.0,1.724,0.34280207138431135,7.0,-0.45392407629344234,-0.7765097142684775,0.32258563797503514
391,Pilot,d09302021,c4z0I,deliberation,0.0,1.0,4.0,32.0,29.0,Macka1.jpg,Clifb1.jpg,64.0,43.0,0.0,1.0,1.0,32.0,29.0,2.976,1.9746963427651416,21.0,0.4216655124959387,-0.5460914014291667,0.9677569139251054
392,Pilot,d09302021,c4z0I,deliberation,1.0,1.0,5.0,41.0,59.0,Vincb1.jpg,Kraa1n.jpg,35.0,40.0,1.0,-1.0,1.0,41.0,59.0,2.779,1.717920646709212,-5.0,-0.9147607019720639,-0.6843423891327531,-0.2304183128393108
393,Pilot,d09302021,c4z0I,deliberation,1.0,1.0,6.0,40.0,22.0,Krab1n.jpg,Macb1n.jpg,34.0,33.0,1.0,-1.0,0.0,22.0,40.0,2.43,1.2630236014121599,1.0,-0.9608443645399262,-1.0069280271077883,0.046083662567862116
394,Pilot,d09302021,c4z0I,deliberation,0.0,1.0,7.0,2.0,39.0,Dekob1.jpg,Dekb1n.jpg,32.0,69.0,0.0,-1.0,0.0,39.0,2.0,2.878,1.846960209701786,-37.0,-1.0530116896756505,0.6520838253352496,-1.7050955150109002
395,Pilot,d09302021,c4z0I,deliberation,1.0,1.0,8.0,11.0,1.0,Wdekb1.jpg,Lewia1.jpg,74.0,68.0,1.0,1.0,0.0,1.0,11.0,1.768,0.4001529882698997,6.0,0.8825021381745604,0.6060001627673873,0.27650197540717303
396,Pilot,d09302021,c4z0I,deliberation,0.0,1.0,9.0,23.0,16.0,Lewib1.jpg,Lewa1n.jpg,75.0,67.0,0.0,1.0,0.0,16.0,23.0,1.243,-0.2841477245695058,8.0,0.9285858007424225,0.5599165001995252,0.36866930054289726
397,Pilot,d09302021,c4z0I,deliberation,1.0,1.0,10.0,3.0,54.0,Fogeg1.jpg,Kupka1.jpg,33.0,64.0,1.0,1.0,0.0,54.0,3.0,1.914,0.5904537579357152,-31.0,-1.0069280271077883,0.4216655124959387,-1.428593539603727
398,Pilot,d09302021,c4z0I,deliberation,1.0,1.0,11.0,46.0,6.0,Deka1n.jpg,Wdekc1.jpg,61.0,56.0,1.0,-1.0,1.0,46.0,6.0,1.483,0.02867545844279388,5.0,0.28341452479235224,0.05299621195304142,0.23041831283931083
399,Pilot,d09302021,c4z0I,deliberation,0.0,1.0,12.0,49.0,17.0,Hinda1.jpg,Picab1.jpg,32.0,72.0,0.0,-1.0,0.0,17.0,49.0,1.908,0.5826331783604077,-40.0,-1.0530116896756505,0.790334813038836,-1.8433465027144864
400,Pilot,d09302021,c4z0I,deliberation,1.0,1.0,13.0,7.0,37.0,Pica1n.jpg,Mondb1.jpg,65.0,77.0,1.0,-1.0,0.0,37.0,7.0,1.866,0.5278891213332555,-12.0,0.46774917506380087,1.0207531258781468,-0.553003950814346
401,Pilot,d09302021,c4z0I,deliberation,0.0,1.0,14.0,47.0,55.0,Kupkd1.jpg,Lewic1.jpg,64.0,72.0,0.0,-1.0,0.0,55.0,47.0,1.092,-0.4809656438814111,-8.0,0.4216655124959387,0.790334813038836,-0.3686693005428973
402,Pilot,d09302021,c4z0I,deliberation,0.0,1.0,15.0,27.0,58.0,Vinb1n.jpg,Mackc1.jpg,32.0,43.0,0.0,-1.0,0.0,58.0,27.0,1.318,-0.18639047987816224,-11.0,-1.0530116896756505,-0.5460914014291667,-0.5069202882464838
403,Pilot,d09302021,c4z0I,deliberation,0.0,2.0,16.0,27.0,58.0,Vinb1n.jpg,Mackc1.jpg,32.0,43.0,1.0,-1.0,0.0,58.0,27.0,1.48,0.02476516865513998,-11.0,-1.0530116896756505,-0.5460914014291667,-0.5069202882464838
404,Pilot,d09302021,c4z0I,deliberation,0.0,2.0,17.0,31.0,0.0,Maca1n.jpg,Gorkc1.jpg,64.0,37.0,1.0,1.0,1.0,31.0,0.0,3.777,3.018743716068692,27.0,0.4216655124959387,-0.8225933768363397,1.2442588893322784
405,Pilot,d09302021,c4z0I,deliberation,0.0,2.0,18.0,49.0,17.0,Hinda1.jpg,Picab1.jpg,32.0,72.0,1.0,-1.0,0.0,17.0,49.0,1.581,0.15641159150614942,-40.0,-1.0530116896756505,0.790334813038836,-1.8433465027144864
406,Pilot,d09302021,c4z0I,deliberation,1.0,2.0,19.0,3.0,54.0,Fogeg1.jpg,Kupka1.jpg,33.0,64.0,0.0,1.0,0.0,54.0,3.0,1.252,-0.27241685520654474,-31.0,-1.0069280271077883,0.4216655124959387,-1.428593539603727
407,Pilot,d09302021,c4z0I,deliberation,1.0,2.0,20.0,11.0,1.0,Wdekb1.jpg,Lewia1.jpg,74.0,68.0,0.0,1.0,0.0,1.0,11.0,0.789,-0.8759049124344396,6.0,0.8825021381745604,0.6060001627673873,0.27650197540717303
408,Pilot,d09302021,c4z0I,deliberation,1.0,2.0,21.0,33.0,12.0,Kupc1n.jpg,Kupkc1.jpg,77.0,74.0,0.0,1.0,1.0,33.0,12.0,1.06,-0.5226754016163845,3.0,1.0207531258781468,0.8825021381745604,0.13825098770358646
409,Pilot,d09302021,c4z0I,deliberation,0.0,2.0,22.0,47.0,55.0,Kupkd1.jpg,Lewic1.jpg,64.0,72.0,1.0,-1.0,0.0,55.0,47.0,1.15,-0.4053667079867722,-8.0,0.4216655124959387,0.790334813038836,-0.3686693005428973
410,Pilot,d09302021,c4z0I,deliberation,1.0,2.0,23.0,20.0,48.0,Gorc1n.jpg,Picb1n.jpg,45.0,38.0,0.0,1.0,1.0,20.0,48.0,0.959,-0.6543218244673941,7.0,-0.45392407629344234,-0.7765097142684775,0.32258563797503514
411,Pilot,d09302021,c4z0I,deliberation,1.0,2.0,24.0,40.0,22.0,Krab1n.jpg,Macb1n.jpg,34.0,33.0,0.0,-1.0,0.0,22.0,40.0,1.58,0.15510816157693166,1.0,-0.9608443645399262,-1.0069280271077883,0.046083662567862116
412,Pilot,d09302021,c4z0I,deliberation,1.0,2.0,25.0,41.0,59.0,Vincb1.jpg,Kraa1n.jpg,35.0,40.0,0.0,-1.0,1.0,41.0,59.0,1.136,-0.4236147269958231,-5.0,-0.9147607019720639,-0.6843423891327531,-0.2304183128393108
413,Pilot,d09302021,c4z0I,deliberation,0.0,2.0,26.0,23.0,16.0,Lewib1.jpg,Lewa1n.jpg,75.0,67.0,1.0,1.0,0.0,16.0,23.0,0.651,-1.0557782426665119,8.0,0.9285858007424225,0.5599165001995252,0.36866930054289726
414,Pilot,d09302021,c4z0I,deliberation,0.0,2.0,27.0,32.0,29.0,Macka1.jpg,Clifb1.jpg,64.0,43.0,1.0,1.0,1.0,32.0,29.0,1.344,-0.1525013017184964,21.0,0.4216655124959387,-0.5460914014291667,0.9677569139251054
415,Pilot,d09302021,c4z0I,deliberation,0.0,2.0,28.0,2.0,39.0,Dekob1.jpg,Dekb1n.jpg,32.0,69.0,1.0,-1.0,0.0,39.0,2.0,1.18,-0.36626381011023473,-37.0,-1.0530116896756505,0.6520838253352496,-1.7050955150109002
416,Pilot,d09302021,c4z0I,deliberation,1.0,2.0,29.0,46.0,6.0,Deka1n.jpg,Wdekc1.jpg,61.0,56.0,0.0,-1.0,1.0,46.0,6.0,1.329,-0.17205275065676529,5.0,0.28341452479235224,0.05299621195304142,0.23041831283931083
417,Pilot,d09302021,c4z0I,deliberation,0.0,2.0,30.0,44.0,13.0,Lassf1.jpg,Picak1.jpg,36.0,65.0,1.0,1.0,0.0,13.0,44.0,1.026,-0.5669920192097936,-29.0,-0.8686770394042018,0.46774917506380087,-1.3364262144680028
418,Pilot,d09302021,c4z0I,deliberation,1.0,2.0,31.0,7.0,37.0,Pica1n.jpg,Mondb1.jpg,65.0,77.0,0.0,-1.0,0.0,37.0,7.0,1.082,-0.49399994317359025,-12.0,0.46774917506380087,1.0207531258781468,-0.553003950814346
419,Pilot,d09302021,c4z0I,deliberation,1.0,3.0,32.0,33.0,12.0,Kupc1n.jpg,Kupkc1.jpg,77.0,74.0,0.0,1.0,1.0,33.0,12.0,1.178,-0.3688706699686706,3.0,1.0207531258781468,0.8825021381745604,0.13825098770358646
420,Pilot,d09302021,c4z0I,deliberation,0.0,3.0,33.0,23.0,16.0,Lewib1.jpg,Lewa1n.jpg,75.0,67.0,0.0,1.0,0.0,16.0,23.0,0.897,-0.7351344800789047,8.0,0.9285858007424225,0.5599165001995252,0.36866930054289726
421,Pilot,d09302021,c4z0I,deliberation,1.0,3.0,34.0,40.0,22.0,Krab1n.jpg,Macb1n.jpg,34.0,33.0,0.0,-1.0,1.0,40.0,22.0,1.989,0.6882110026270591,1.0,-0.9608443645399262,-1.0069280271077883,0.046083662567862116
422,Pilot,d09302021,c4z0I,deliberation,0.0,3.0,35.0,31.0,0.0,Maca1n.jpg,Gorkc1.jpg,64.0,37.0,0.0,1.0,1.0,31.0,0.0,0.902,-0.7286173304328152,27.0,0.4216655124959387,-0.8225933768363397,1.2442588893322784
423,Pilot,d09302021,c4z0I,deliberation,1.0,3.0,36.0,20.0,48.0,Gorc1n.jpg,Picb1n.jpg,45.0,38.0,0.0,1.0,0.0,48.0,20.0,1.156,-0.39754612841146475,7.0,-0.45392407629344234,-0.7765097142684775,0.32258563797503514
424,Pilot,d09302021,c4z0I,deliberation,1.0,3.0,37.0,11.0,1.0,Wdekb1.jpg,Lewia1.jpg,74.0,68.0,0.0,1.0,0.0,1.0,11.0,0.772,-0.8980632212311441,6.0,0.8825021381745604,0.6060001627673873,0.27650197540717303
425,Pilot,d09302021,c4z0I,deliberation,0.0,3.0,38.0,49.0,17.0,Hinda1.jpg,Picab1.jpg,32.0,72.0,0.0,-1.0,0.0,17.0,49.0,0.976,-0.6321635156706894,-40.0,-1.0530116896756505,0.790334813038836,-1.8433465027144864
426,Pilot,d09302021,c4z0I,deliberation,1.0,3.0,39.0,41.0,59.0,Vincb1.jpg,Kraa1n.jpg,35.0,40.0,0.0,-1.0,1.0,41.0,59.0,0.736,-0.9449866986829891,-5.0,-0.9147607019720639,-0.6843423891327531,-0.2304183128393108
427,Pilot,d09302021,c4z0I,deliberation,1.0,3.0,40.0,7.0,37.0,Pica1n.jpg,Mondb1.jpg,65.0,77.0,0.0,-1.0,0.0,37.0,7.0,0.728,-0.9554141381167325,-12.0,0.46774917506380087,1.0207531258781468,-0.553003950814346
428,Pilot,d09302021,c4z0I,deliberation,0.0,3.0,41.0,27.0,58.0,Vinb1n.jpg,Mackc1.jpg,32.0,43.0,0.0,-1.0,0.0,58.0,27.0,0.887,-0.7481687793710838,-11.0,-1.0530116896756505,-0.5460914014291667,-0.5069202882464838
429,Pilot,d09302021,c4z0I,deliberation,1.0,3.0,42.0,46.0,6.0,Deka1n.jpg,Wdekc1.jpg,61.0,56.0,0.0,-1.0,1.0,46.0,6.0,0.987,-0.6178257864492923,5.0,0.28341452479235224,0.05299621195304142,0.23041831283931083
430,Pilot,d09302021,c4z0I,deliberation,0.0,3.0,43.0,47.0,55.0,Kupkd1.jpg,Lewic1.jpg,64.0,72.0,0.0,-1.0,1.0,47.0,55.0,0.84,-0.8094299860443259,-8.0,0.4216655124959387,0.790334813038836,-0.3686693005428973
431,Pilot,d09302021,c4z0I,deliberation,1.0,3.0,44.0,3.0,54.0,Fogeg1.jpg,Kupka1.jpg,33.0,64.0,0.0,1.0,0.0,54.0,3.0,0.789,-0.8759049124344396,-31.0,-1.0069280271077883,0.4216655124959387,-1.428593539603727
432,Pilot,d09302021,c4z0I,deliberation,0.0,3.0,45.0,32.0,29.0,Macka1.jpg,Clifb1.jpg,64.0,43.0,0.0,1.0,1.0,32.0,29.0,0.65,-1.05708167259573,21.0,0.4216655124959387,-0.5460914014291667,0.9677569139251054
433,Pilot,d09302021,c4z0I,deliberation,0.0,3.0,46.0,2.0,39.0,Dekob1.jpg,Dekb1n.jpg,32.0,69.0,0.0,-1.0,0.0,39.0,2.0,0.721,-0.9645381476212579,-37.0,-1.0530116896756505,0.6520838253352496,-1.7050955150109002
434,Pilot,d09302021,c4z0I,deliberation,0.0,3.0,47.0,44.0,13.0,Lassf1.jpg,Picak1.jpg,36.0,65.0,0.0,1.0,0.0,13.0,44.0,0.915,-0.7116727413529822,-29.0,-0.8686770394042018,0.46774917506380087,-1.3364262144680028
435,Pilot,d09302021,h3ty7,deliberation,0.0,1.0,0.0,53.0,52.0,Gorka1.jpg,Picaa1.jpg,66.0,84.0,0.0,-1.0,0.0,52.0,53.0,1.891,0.15876531109898703,-18.0,-0.06736213391834757,1.0693738759537719,-1.1367360098721195
436,Pilot,d09302021,h3ty7,deliberation,1.0,1.0,1.0,47.0,45.0,Kupkd1.jpg,Klia1n.jpg,68.0,67.0,1.0,-1.0,1.0,47.0,45.0,1.224,-0.4511495197319655,1.0,0.058941867178554576,-0.004210133369896499,0.06315200054845108
437,Pilot,d09302021,h3ty7,deliberation,0.0,1.0,2.0,57.0,14.0,Lewc1n.jpg,Kupkb1.jpg,64.0,63.0,0.0,1.0,1.0,57.0,14.0,1.281,-0.3990278625245228,1.0,-0.19366613501524974,-0.2568181355637008,0.06315200054845108
438,Pilot,d09302021,h3ty7,deliberation,0.0,1.0,3.0,29.0,10.0,Clifb1.jpg,Stera1.jpg,55.0,68.0,0.0,-1.0,1.0,29.0,10.0,2.363,0.5903692093781617,-13.0,-0.7620341399513094,0.058941867178554576,-0.820976007129864
439,Pilot,d09302021,h3ty7,deliberation,1.0,1.0,4.0,0.0,42.0,Gorkc1.jpg,Picc1n.jpg,70.0,65.0,1.0,-1.0,1.0,0.0,42.0,2.564,0.774166632162302,5.0,0.18524586827545672,-0.13051413446679866,0.31576000274225535
440,Pilot,d09302021,h3ty7,deliberation,0.0,1.0,5.0,30.0,37.0,Lasse1.jpg,Mondb1.jpg,69.0,69.0,0.0,-1.0,1.0,30.0,37.0,2.46,0.6790674681346871,0.0,0.12209386772700566,0.12209386772700566,0.0
441,Pilot,d09302021,h3ty7,deliberation,0.0,1.0,6.0,54.0,3.0,Kupka1.jpg,Fogeg1.jpg,69.0,60.0,0.0,1.0,1.0,54.0,3.0,1.491,-0.20700070439183896,9.0,0.12209386772700566,-0.446274137209054,0.5683680049360597
442,Pilot,d09302021,h3ty7,deliberation,1.0,1.0,7.0,6.0,16.0,Wdekc1.jpg,Lewa1n.jpg,60.0,80.0,1.0,-1.0,0.0,16.0,6.0,1.768,0.046292261335558006,-20.0,-0.446274137209054,0.8167658737599675,-1.2630400109690214
443,Pilot,d09302021,h3ty7,deliberation,0.0,1.0,8.0,59.0,28.0,Kraa1n.jpg,Krasa1.jpg,63.0,74.0,0.0,1.0,0.0,28.0,59.0,6.891,4.730840504734313,-11.0,-0.2568181355637008,0.43785387046926105,-0.6946720060329619
444,Pilot,d09302021,h3ty7,deliberation,1.0,1.0,9.0,31.0,39.0,Maca1n.jpg,Dekb1n.jpg,76.0,79.0,1.0,-1.0,0.0,39.0,31.0,2.003,0.2611797954364184,-3.0,0.5641578715661631,0.7536138732115164,-0.18945600164535326
445,Pilot,d09302021,h3ty7,deliberation,0.0,1.0,10.0,23.0,35.0,Lewib1.jpg,Wdeka1.jpg,84.0,67.0,0.0,1.0,0.0,35.0,23.0,2.67,0.8710946262673708,17.0,1.0693738759537719,-0.004210133369896499,1.0735840093236684
446,Pilot,d09302021,h3ty7,deliberation,1.0,1.0,11.0,25.0,22.0,Clifa1.jpg,Macb1n.jpg,75.0,64.0,1.0,1.0,1.0,25.0,22.0,2.185,0.42760333248474425,11.0,0.5010058710177121,-0.19366613501524974,0.6946720060329619
447,Pilot,d09302021,h3ty7,deliberation,0.0,1.0,12.0,27.0,1.0,Vinb1n.jpg,Lewia1.jpg,79.0,83.0,0.0,-1.0,0.0,1.0,27.0,2.923,1.1024416310653182,-4.0,0.7536138732115164,1.0062218754053207,-0.2526080021938043
448,Pilot,d09302021,h3ty7,deliberation,1.0,1.0,13.0,50.0,12.0,Gorke1.jpg,Kupkc1.jpg,67.0,60.0,1.0,1.0,0.0,12.0,50.0,1.775,0.05269316660664737,7.0,-0.004210133369896499,-0.446274137209054,0.4420640038391575
449,Pilot,d09302021,h3ty7,deliberation,1.0,1.0,14.0,44.0,24.0,Lassf1.jpg,Dekoa1.jpg,78.0,60.0,1.0,1.0,1.0,44.0,24.0,5.006,3.0071681567337953,18.0,0.6904618726630654,-0.446274137209054,1.1367360098721193
450,Pilot,d09302021,h3ty7,deliberation,1.0,1.0,15.0,36.0,20.0,Gorkf1.jpg,Gorc1n.jpg,63.0,77.0,1.0,1.0,1.0,36.0,20.0,2.91,1.0905542355618665,-14.0,-0.2568181355637008,0.6273098721146143,-0.8841280076783151
451,Pilot,d09302021,h3ty7,deliberation,0.0,2.0,16.0,59.0,28.0,Kraa1n.jpg,Krasa1.jpg,63.0,74.0,1.0,1.0,0.0,28.0,59.0,1.194,-0.47858197089377746,-11.0,-0.2568181355637008,0.43785387046926105,-0.6946720060329619
452,Pilot,d09302021,h3ty7,deliberation,1.0,2.0,17.0,36.0,20.0,Gorkf1.jpg,Gorc1n.jpg,63.0,77.0,0.0,1.0,1.0,36.0,20.0,1.668,-0.045149242537148596,-14.0,-0.2568181355637008,0.6273098721146143,-0.8841280076783151
453,Pilot,d09302021,h3ty7,deliberation,0.0,2.0,18.0,29.0,10.0,Clifb1.jpg,Stera1.jpg,55.0,68.0,1.0,-1.0,1.0,29.0,10.0,1.242,-0.4346900490348783,-13.0,-0.7620341399513094,0.058941867178554576,-0.820976007129864
454,Pilot,d09302021,h3ty7,deliberation,0.0,2.0,19.0,53.0,52.0,Gorka1.jpg,Picaa1.jpg,66.0,84.0,1.0,-1.0,0.0,52.0,53.0,0.788,-0.8498344766169659,-18.0,-0.06736213391834757,1.0693738759537719,-1.1367360098721195
455,Pilot,d09302021,h3ty7,deliberation,0.0,2.0,20.0,57.0,14.0,Lewc1n.jpg,Kupkb1.jpg,64.0,63.0,1.0,1.0,1.0,57.0,14.0,1.46,-0.23534757059237812,1.0,-0.19366613501524974,-0.2568181355637008,0.06315200054845108
456,Pilot,d09302021,h3ty7,deliberation,0.0,2.0,21.0,27.0,1.0,Vinb1n.jpg,Lewia1.jpg,79.0,83.0,1.0,-1.0,0.0,1.0,27.0,1.677,-0.0369195071886049,-4.0,0.7536138732115164,1.0062218754053207,-0.2526080021938043
457,Pilot,d09302021,h3ty7,deliberation,1.0,2.0,22.0,44.0,24.0,Lassf1.jpg,Dekoa1.jpg,78.0,60.0,0.0,1.0,1.0,44.0,24.0,1.733,0.0142877349801108,18.0,0.6904618726630654,-0.446274137209054,1.1367360098721193
458,Pilot,d09302021,h3ty7,deliberation,1.0,2.0,23.0,50.0,12.0,Gorke1.jpg,Kupkc1.jpg,67.0,60.0,0.0,1.0,0.0,12.0,50.0,1.149,-0.5197306476364953,7.0,-0.004210133369896499,-0.446274137209054,0.4420640038391575
459,Pilot,d09302021,h3ty7,deliberation,1.0,2.0,24.0,25.0,22.0,Clifa1.jpg,Macb1n.jpg,75.0,64.0,0.0,1.0,1.0,25.0,22.0,1.384,-0.30484311353563515,11.0,0.5010058710177121,-0.19366613501524974,0.6946720060329619
460,Pilot,d09302021,h3ty7,deliberation,1.0,2.0,25.0,0.0,42.0,Gorkc1.jpg,Picc1n.jpg,70.0,65.0,0.0,-1.0,1.0,0.0,42.0,1.481,-0.21614485477910964,5.0,0.18524586827545672,-0.13051413446679866,0.31576000274225535
461,Pilot,d09302021,h3ty7,deliberation,1.0,2.0,26.0,31.0,39.0,Maca1n.jpg,Dekb1n.jpg,76.0,79.0,0.0,-1.0,0.0,39.0,31.0,0.916,-0.7327893516599016,-3.0,0.5641578715661631,0.7536138732115164,-0.18945600164535326
462,Pilot,d09302021,h3ty7,deliberation,0.0,2.0,27.0,23.0,35.0,Lewib1.jpg,Wdeka1.jpg,84.0,67.0,1.0,1.0,0.0,35.0,23.0,1.921,0.186197762260799,17.0,1.0693738759537719,-0.004210133369896499,1.0735840093236684
463,Pilot,d09302021,h3ty7,deliberation,1.0,2.0,28.0,47.0,45.0,Kupkd1.jpg,Klia1n.jpg,68.0,67.0,0.0,-1.0,1.0,47.0,45.0,1.362,-0.3249602443876304,1.0,0.058941867178554576,-0.004210133369896499,0.06315200054845108
464,Pilot,d09302021,h3ty7,deliberation,0.0,2.0,29.0,30.0,37.0,Lasse1.jpg,Mondb1.jpg,69.0,69.0,1.0,-1.0,1.0,30.0,37.0,0.73,-0.9028705488631357,0.0,0.12209386772700566,0.12209386772700566,0.0
465,Pilot,d09302021,h3ty7,deliberation,0.0,2.0,30.0,54.0,3.0,Kupka1.jpg,Fogeg1.jpg,69.0,60.0,1.0,1.0,1.0,54.0,3.0,1.553,-0.1503069719907611,9.0,0.12209386772700566,-0.446274137209054,0.5683680049360597
466,Pilot,d09302021,h3ty7,deliberation,1.0,2.0,31.0,6.0,16.0,Wdekc1.jpg,Lewa1n.jpg,60.0,80.0,0.0,-1.0,0.0,16.0,6.0,1.886,0.15419323590535158,-20.0,-0.446274137209054,0.8167658737599675,-1.2630400109690214
467,Pilot,d09302021,h3ty7,deliberation,0.0,3.0,32.0,54.0,3.0,Kupka1.jpg,Fogeg1.jpg,69.0,60.0,0.0,1.0,1.0,54.0,3.0,1.709,-0.007658225949338784,9.0,0.12209386772700566,-0.446274137209054,0.5683680049360597
468,Pilot,d09302021,h3ty7,deliberation,0.0,3.0,33.0,30.0,37.0,Lasse1.jpg,Mondb1.jpg,69.0,69.0,0.0,-1.0,1.0,30.0,37.0,1.426,-0.2664376819090984,0.0,0.12209386772700566,0.12209386772700566,0.0
469,Pilot,d09302021,h3ty7,deliberation,0.0,3.0,34.0,59.0,28.0,Kraa1n.jpg,Krasa1.jpg,63.0,74.0,0.0,1.0,0.0,28.0,59.0,2.814,1.0027703918440682,-11.0,-0.2568181355637008,0.43785387046926105,-0.6946720060329619
470,Pilot,d09302021,h3ty7,deliberation,0.0,3.0,35.0,29.0,10.0,Clifb1.jpg,Stera1.jpg,55.0,68.0,0.0,-1.0,1.0,29.0,10.0,0.771,-0.8653795322753259,-13.0,-0.7620341399513094,0.058941867178554576,-0.820976007129864
471,Pilot,d09302021,h3ty7,deliberation,1.0,3.0,36.0,36.0,20.0,Gorkf1.jpg,Gorc1n.jpg,63.0,77.0,0.0,1.0,1.0,36.0,20.0,1.054,-0.6066000763155666,-14.0,-0.2568181355637008,0.6273098721146143,-0.8841280076783151
472,Pilot,d09302021,h3ty7,deliberation,1.0,3.0,37.0,31.0,39.0,Maca1n.jpg,Dekb1n.jpg,76.0,79.0,0.0,-1.0,0.0,39.0,31.0,1.079,-0.58373970034739,-3.0,0.5641578715661631,0.7536138732115164,-0.18945600164535326
473,Pilot,d09302021,h3ty7,deliberation,0.0,3.0,38.0,27.0,1.0,Vinb1n.jpg,Lewia1.jpg,79.0,83.0,0.0,-1.0,0.0,1.0,27.0,0.87,-0.7748524434413465,-4.0,0.7536138732115164,1.0062218754053207,-0.2526080021938043
474,Pilot,d09302021,h3ty7,deliberation,1.0,3.0,39.0,50.0,12.0,Gorke1.jpg,Kupkc1.jpg,67.0,60.0,0.0,1.0,0.0,12.0,50.0,1.22,-0.45480717988687375,7.0,-0.004210133369896499,-0.446274137209054,0.4420640038391575
475,Pilot,d09302021,h3ty7,deliberation,0.0,3.0,40.0,23.0,35.0,Lewib1.jpg,Wdeka1.jpg,84.0,67.0,0.0,1.0,0.0,35.0,23.0,1.094,-0.5700234747664839,17.0,1.0693738759537719,-0.004210133369896499,1.0735840093236684
476,Pilot,d09302021,h3ty7,deliberation,1.0,3.0,41.0,44.0,24.0,Lassf1.jpg,Dekoa1.jpg,78.0,60.0,0.0,1.0,1.0,44.0,24.0,1.471,-0.22528900516638029,18.0,0.6904618726630654,-0.446274137209054,1.1367360098721193
477,Pilot,d09302021,h3ty7,deliberation,0.0,3.0,42.0,57.0,14.0,Lewc1n.jpg,Kupkb1.jpg,64.0,63.0,0.0,1.0,1.0,57.0,14.0,0.695,-0.9348750752185832,1.0,-0.19366613501524974,-0.2568181355637008,0.06315200054845108
478,Pilot,d09302021,h3ty7,deliberation,1.0,3.0,43.0,6.0,16.0,Wdekc1.jpg,Lewa1n.jpg,60.0,80.0,0.0,-1.0,0.0,16.0,6.0,0.862,-0.782167763751163,-20.0,-0.446274137209054,0.8167658737599675,-1.2630400109690214
479,Pilot,d09302021,h3ty7,deliberation,1.0,3.0,44.0,47.0,45.0,Kupkd1.jpg,Klia1n.jpg,68.0,67.0,0.0,-1.0,1.0,47.0,45.0,0.834,-0.8077713848355209,1.0,0.058941867178554576,-0.004210133369896499,0.06315200054845108
480,Pilot,d09302021,h3ty7,deliberation,0.0,3.0,45.0,53.0,52.0,Gorka1.jpg,Picaa1.jpg,66.0,84.0,0.0,-1.0,0.0,52.0,53.0,0.97,-0.6834109395686401,-18.0,-0.06736213391834757,1.0693738759537719,-1.1367360098721195
481,Pilot,d09302021,h3ty7,deliberation,1.0,3.0,46.0,25.0,22.0,Clifa1.jpg,Macb1n.jpg,75.0,64.0,0.0,1.0,1.0,25.0,22.0,1.063,-0.598370340967023,11.0,0.5010058710177121,-0.19366613501524974,0.6946720060329619
482,Pilot,d09302021,h3ty7,deliberation,1.0,3.0,47.0,0.0,42.0,Gorkc1.jpg,Picc1n.jpg,70.0,65.0,0.0,-1.0,1.0,0.0,42.0,0.953,-0.6989559952270001,5.0,0.18524586827545672,-0.13051413446679866,0.31576000274225535
483,Pilot,d10012021,11A0U,deliberation,0.0,1.0,0.0,17.0,19.0,Picab1.jpg,Macc1n.jpg,38.0,55.0,0.0,-1.0,1.0,17.0,19.0,5.901,2.535326326666145,-17.0,0.07640938991999055,0.9722436165681538,-0.8958342266481633
484,Pilot,d10012021,11A0U,deliberation,1.0,1.0,1.0,4.0,41.0,Mackb1.jpg,Vincb1.jpg,38.0,24.0,1.0,-1.0,1.0,4.0,41.0,8.622,4.354033868631708,14.0,0.07640938991999055,-0.6613364437902616,0.7377458337102522
485,Pilot,d10012021,11A0U,deliberation,1.0,1.0,2.0,51.0,18.0,Gora1n.jpg,Krasb1.jpg,25.0,60.0,1.0,-1.0,0.0,18.0,51.0,3.644,1.0267548741794588,-35.0,-0.6086403128109579,1.2357242714646726,-1.8443645842756304
486,Pilot,d10012021,11A0U,deliberation,1.0,1.0,3.0,3.0,52.0,Fogeg1.jpg,Picaa1.jpg,37.0,19.0,1.0,1.0,1.0,3.0,52.0,6.144,2.6977467355958153,18.0,0.023713258940686825,-0.9248170986867802,0.9485303576274671
