,Exp,group,PID,phase,trial,condition,old_pair,stimulus_left,stimulus_right,old_response,rt_pairs,chosen_object,left_object_chosen,rt_object,pairs_acc,zscored_rt_pairs,zscored_rt_object
0,Pilot,d10012021,arjeO,memory_test,0.0,0.0,0.0,49.0,14.0,0.0,1484.0,,,,1,-1.6891048130489765,
1,Pilot,d10012021,arjeO,memory_test,1.0,0.0,0.0,45.0,48.0,0.0,5053.0,,,,1,1.5141444852041412,
2,Pilot,d10012021,arjeO,memory_test,2.0,1.0,0.0,32.0,34.0,0.0,4736.0,,,,1,1.2296306080547328,
3,Pilot,d10012021,arjeO,memory_test,3.0,0.0,1.0,7.0,57.0,0.0,3266.0,7.0,,,0,-0.08972396421539405,
4,Pilot,d10012021,arjeO,memory_test,4.0,1.0,0.0,31.0,36.0,0.0,2555.0,,,,1,-0.727860767537884,
5,Pilot,d10012021,arjeO,memory_test,5.0,0.0,1.0,21.0,49.0,1.0,1734.0,49.0,0.0,5610.0,1,-1.464724783751336,2.9208441603548754
6,Pilot,d10012021,arjeO,memory_test,6.0,1.0,1.0,31.0,47.0,0.0,4478.0,47.0,,,0,0.9980704178195677,
7,Pilot,d10012021,arjeO,memory_test,7.0,0.0,1.0,14.0,48.0,0.0,3472.0,48.0,,,0,0.09516517992586183,
8,Pilot,d10012021,arjeO,memory_test,8.0,1.0,1.0,56.0,59.0,0.0,2100.0,56.0,,,0,-1.13623242085959,
9,Pilot,d10012021,arjeO,memory_test,9.0,1.0,0.0,39.0,46.0,0.0,2529.0,,,,1,-0.7511962905848386,
10,Pilot,d10012021,arjeO,memory_test,10.0,1.0,1.0,2.0,36.0,1.0,2357.0,36.0,0.0,2474.0,1,-0.9055697507416154,0.7070922985472006
11,Pilot,d10012021,arjeO,memory_test,11.0,0.0,0.0,12.0,33.0,0.0,2477.0,,,,1,-0.7978673366787479,
12,Pilot,d10012021,arjeO,memory_test,12.0,1.0,1.0,4.0,46.0,0.0,4124.0,4.0,,,0,0.6803482963341086,
13,Pilot,d10012021,arjeO,memory_test,13.0,1.0,1.0,32.0,29.0,1.0,3648.0,32.0,1.0,1171.0,1,0.25312872055140084,-0.21271595270771018
14,Pilot,d10012021,arjeO,memory_test,14.0,0.0,1.0,5.0,33.0,1.0,3256.0,5.0,1.0,914.0,1,-0.09869916538729967,-0.39413630617855594
15,Pilot,d10012021,arjeO,memory_test,15.0,1.0,0.0,41.0,59.0,0.0,3031.0,,,,1,-0.30064119175517623,
16,Pilot,d10012021,arjeO,memory_test,16.0,0.0,0.0,21.0,7.0,1.0,2900.0,,1.0,939.0,0,-0.41821632710713996,-0.37648841187205345
17,Pilot,d10012021,arjeO,memory_test,17.0,1.0,0.0,53.0,47.0,0.0,6138.0,,,,1,2.4879538123559017,
18,Pilot,d10012021,arjeO,memory_test,18.0,1.0,0.0,29.0,56.0,0.0,5043.0,,,,1,1.5051692840322357,
19,Pilot,d10012021,arjeO,memory_test,19.0,1.0,0.0,44.0,4.0,0.0,2860.0,,,,1,-0.45411713179476243,
20,Pilot,d10012021,arjeO,memory_test,20.0,1.0,1.0,44.0,19.0,1.0,2411.0,19.0,0.0,896.0,1,-0.8571036644133251,-0.4068427900792378
21,Pilot,d10012021,arjeO,memory_test,21.0,0.0,0.0,5.0,35.0,1.0,2972.0,,1.0,622.0,0,-0.35359487866941947,-0.6002637116785052
22,Pilot,d10012021,arjeO,memory_test,22.0,1.0,1.0,41.0,53.0,1.0,3720.0,41.0,1.0,592.0,1,0.31775016898912134,-0.6214411848463083
23,Pilot,d10012021,arjeO,memory_test,23.0,0.0,1.0,16.0,12.0,0.0,3400.0,12.0,,,0,0.03054373148814133,
24,Pilot,d10012021,arjeO,memory_test,24.0,0.0,0.0,57.0,25.0,0.0,2814.0,,,,1,-0.4954030571855283,
25,Pilot,d10012021,arjeO,memory_test,25.0,1.0,0.0,19.0,2.0,1.0,4715.0,,1.0,432.0,0,1.2107826855937311,-0.7343877084079243
26,Pilot,d10012021,arjeO,memory_test,26.0,0.0,1.0,30.0,25.0,0.0,4899.0,25.0,,,0,1.3759263871567946,
27,Pilot,d10012021,arjeO,memory_test,27.0,0.0,1.0,45.0,40.0,1.0,2573.0,40.0,0.0,1404.0,1,-0.7117054054284538,-0.0482375777711068
28,Pilot,d10012021,arjeO,memory_test,28.0,0.0,1.0,8.0,35.0,1.0,3321.0,8.0,1.0,1689.0,1,-0.04036035776991311,0.15294841732302178
29,Pilot,d10012021,arjeO,memory_test,29.0,0.0,0.0,40.0,16.0,0.0,1985.0,,,,1,-1.2394472343365046,
30,Pilot,d10012021,arjeO,memory_test,30.0,1.0,1.0,34.0,39.0,1.0,3074.0,39.0,0.0,925.0,1,-0.26204782671598204,-0.3863712326836949
31,Pilot,d10012021,arjeO,memory_test,31.0,0.0,0.0,30.0,8.0,0.0,4586.0,,,,1,1.0950025904761485,
32,Pilot,d10012021,A26v1,memory_test,0.0,0.0,0.0,6.0,20.0,0.0,5549.0,,,,1,4.25072077603573,
33,Pilot,d10012021,A26v1,memory_test,1.0,0.0,0.0,18.0,48.0,1.0,1731.0,,0.0,5244.0,0,0.5016245138053326,4.574703499284437
34,Pilot,d10012021,A26v1,memory_test,2.0,0.0,0.0,55.0,43.0,1.0,3620.0,,0.0,1674.0,0,2.356533586448921,0.88130663666674
35,Pilot,d10012021,A26v1,memory_test,3.0,0.0,1.0,49.0,48.0,1.0,1091.0,48.0,0.0,716.0,1,-0.1268253572861956,-0.10980658304971772
36,Pilot,d10012021,A26v1,memory_test,4.0,1.0,1.0,2.0,51.0,1.0,1373.0,2.0,1.0,543.0,1,0.15008536716350898,-0.2887863189692868
37,Pilot,d10012021,A26v1,memory_test,5.0,0.0,1.0,20.0,40.0,1.0,529.0,40.0,0.0,544.0,1,-0.6786829003384437,-0.28775175402177483
38,Pilot,d10012021,A26v1,memory_test,6.0,1.0,0.0,9.0,7.0,1.0,516.0,,0.0,464.0,0,-0.6914482883449904,-0.37051694982273164
39,Pilot,d10012021,A26v1,memory_test,7.0,1.0,0.0,3.0,59.0,1.0,1385.0,,1.0,987.0,0,0.16186880224647515,0.17056051772602346
40,Pilot,d10012021,A26v1,memory_test,8.0,1.0,1.0,0.0,32.0,1.0,627.0,32.0,0.0,728.0,1,-0.5824515138275534,-0.0973918036795742
41,Pilot,d10012021,A26v1,memory_test,9.0,0.0,0.0,50.0,38.0,1.0,880.0,,1.0,364.0,0,-0.3340174241616838,-0.47397344457392765
42,Pilot,d10012021,A26v1,memory_test,10.0,1.0,0.0,16.0,27.0,1.0,1597.0,,1.0,504.0,0,0.37004282204554384,-0.32913435192225327
43,Pilot,d10012021,A26v1,memory_test,11.0,0.0,1.0,43.0,18.0,1.0,648.0,43.0,1.0,413.0,1,-0.5618305024323628,-0.4232797621458416
44,Pilot,d10012021,A26v1,memory_test,12.0,1.0,1.0,28.0,12.0,1.0,538.0,12.0,0.0,585.0,1,-0.6698453240262191,-0.24533459117378448
45,Pilot,d10012021,A26v1,memory_test,13.0,0.0,1.0,55.0,15.0,1.0,1211.0,15.0,1.0,1178.0,1,-0.00899100645653407,0.3681624227008078
46,Pilot,d10012021,A26v1,memory_test,14.0,0.0,1.0,38.0,6.0,1.0,640.0,6.0,0.0,381.0,1,-0.5696861258210069,-0.4563858404662243
47,Pilot,d10012021,A26v1,memory_test,15.0,1.0,0.0,32.0,35.0,1.0,537.0,,0.0,1461.0,0,-0.6708272769497996,0.6609443028466925
48,Pilot,d10012021,A26v1,memory_test,16.0,0.0,1.0,14.0,50.0,1.0,566.0,50.0,0.0,403.0,1,-0.6423506421659647,-0.4336254116209612
49,Pilot,d10012021,A26v1,memory_test,17.0,1.0,0.0,12.0,51.0,1.0,627.0,,1.0,464.0,0,-0.5824515138275534,-0.37051694982273164
50,Pilot,d10012021,A26v1,memory_test,18.0,1.0,1.0,54.0,52.0,1.0,1587.0,52.0,0.0,381.0,1,0.3602232928097387,-0.4563858404662243
51,Pilot,d10012021,A26v1,memory_test,19.0,0.0,1.0,45.0,29.0,1.0,577.0,29.0,1.0,707.0,1,-0.6315491600065791,-0.11911766757732536
52,Pilot,d10012021,A26v1,memory_test,20.0,1.0,1.0,27.0,9.0,1.0,668.0,27.0,1.0,423.0,1,-0.5421914439607525,-0.412934112670722
53,Pilot,d10012021,A26v1,memory_test,21.0,1.0,1.0,59.0,4.0,1.0,628.0,4.0,0.0,442.0,1,-0.581469560903973,-0.3932773786679948
54,Pilot,d10012021,A26v1,memory_test,22.0,0.0,0.0,14.0,25.0,1.0,488.0,,0.0,604.0,0,-0.7189429702052448,-0.22567785717105723
55,Pilot,d10012021,A26v1,memory_test,23.0,0.0,0.0,40.0,45.0,0.0,1792.0,,,,1,0.5615236421437438,
56,Pilot,d10012021,A26v1,memory_test,24.0,1.0,0.0,4.0,28.0,1.0,1887.0,,1.0,311.0,0,0.6548091698838925,-0.5288053867920616
57,Pilot,d10012021,A26v1,memory_test,25.0,1.0,0.0,54.0,2.0,1.0,1465.0,,0.0,110.0,0,0.24042503613291616,-0.7367529412419654
58,Pilot,d10012021,A26v1,memory_test,26.0,0.0,1.0,25.0,41.0,1.0,970.0,25.0,1.0,242.0,1,-0.24564166103943763,-0.6001903681703867
59,Pilot,d10012021,A26v1,memory_test,27.0,0.0,0.0,15.0,41.0,0.0,1555.0,,,,1,0.3288007992551623,
60,Pilot,d10012021,A26v1,memory_test,28.0,1.0,0.0,0.0,52.0,1.0,1305.0,,0.0,420.0,0,0.08331256836003413,-0.41603780751325786
61,Pilot,d10012021,A26v1,memory_test,29.0,1.0,1.0,7.0,35.0,1.0,1113.0,7.0,0.0,1108.0,1,-0.10522239296742432,0.2957428763749706
62,Pilot,d10012021,A26v1,memory_test,30.0,0.0,0.0,49.0,29.0,1.0,667.0,,0.0,283.0,0,-0.543173396884333,-0.5577732053223964
63,Pilot,d10012021,A26v1,memory_test,31.0,1.0,1.0,3.0,16.0,1.0,678.0,3.0,1.0,2158.0,1,-0.5323719147249474,1.3820360712625286
64,Pilot,d10012021,eoRdQ,memory_test,0.0,0.0,0.0,55.0,16.0,1.0,3962.0,,1.0,3558.0,0,3.7051526350521953,3.3898957866005186
65,Pilot,d10012021,eoRdQ,memory_test,1.0,0.0,1.0,35.0,16.0,1.0,1650.0,35.0,1.0,448.0,1,0.08743088359121212,-0.27941447131385
66,Pilot,d10012021,eoRdQ,memory_test,2.0,1.0,1.0,42.0,41.0,0.0,2175.0,41.0,,,0,0.9089291186764267,
67,Pilot,d10012021,eoRdQ,memory_test,3.0,0.0,1.0,34.0,45.0,1.0,1727.0,45.0,0.0,1977.0,1,0.20791729140371026,1.5245647519501593
68,Pilot,d10012021,eoRdQ,memory_test,4.0,1.0,1.0,48.0,17.0,1.0,1515.0,48.0,1.0,505.0,1,-0.12381151971641449,-0.21216344729419762
69,Pilot,d10012021,eoRdQ,memory_test,5.0,0.0,0.0,33.0,34.0,0.0,1243.0,,,,1,-0.5494258434177066,
70,Pilot,d10012021,eoRdQ,memory_test,6.0,0.0,1.0,57.0,53.0,1.0,1373.0,57.0,1.0,355.0,1,-0.3460072328251773,-0.3891398262932829
71,Pilot,d10012021,eoRdQ,memory_test,7.0,0.0,1.0,8.0,55.0,1.0,2488.0,55.0,0.0,669.0,1,1.3986985426415166,-0.01866927292186435
72,Pilot,d10012021,eoRdQ,memory_test,8.0,1.0,0.0,42.0,21.0,1.0,2472.0,,0.0,448.0,0,1.3736624059532052,-0.27941447131385
73,Pilot,d10012021,eoRdQ,memory_test,9.0,1.0,0.0,17.0,39.0,0.0,1376.0,,,,1,-0.3413129571961189,
74,Pilot,d10012021,eoRdQ,memory_test,10.0,1.0,0.0,31.0,23.0,0.0,915.0,,,,1,-1.0626666455280882,
75,Pilot,d10012021,eoRdQ,memory_test,11.0,1.0,1.0,40.0,26.0,0.0,1049.0,40.0,,,0,-0.8529890007634812,
76,Pilot,d10012021,eoRdQ,memory_test,12.0,0.0,0.0,8.0,57.0,1.0,1969.0,,0.0,329.0,0,0.5865888588144187,-0.4198157319864577
77,Pilot,d10012021,eoRdQ,memory_test,13.0,0.0,1.0,33.0,10.0,1.0,1399.0,33.0,1.0,293.0,1,-0.3053235107066714,-0.46229006294623814
78,Pilot,d10012021,eoRdQ,memory_test,14.0,1.0,0.0,12.0,14.0,1.0,2647.0,,0.0,317.0,0,1.64749515098161,-0.4339738423063845
79,Pilot,d10012021,eoRdQ,memory_test,15.0,0.0,0.0,45.0,32.0,0.0,1444.0,,,,1,-0.2349093762707959,
80,Pilot,d10012021,eoRdQ,memory_test,16.0,1.0,1.0,21.0,27.0,0.0,1128.0,21.0,,,0,-0.7293730758649442,
81,Pilot,d10012021,eoRdQ,memory_test,17.0,1.0,1.0,31.0,36.0,1.0,1828.0,31.0,1.0,284.0,1,0.36595790424867536,-0.4729086456861833
82,Pilot,d10012021,eoRdQ,memory_test,18.0,1.0,0.0,15.0,41.0,0.0,1767.0,,,,1,0.2705076331244885,
83,Pilot,d10012021,eoRdQ,memory_test,19.0,0.0,1.0,56.0,38.0,1.0,1297.0,56.0,1.0,293.0,1,-0.464928882094656,-0.46229006294623814
84,Pilot,d10012021,eoRdQ,memory_test,20.0,0.0,1.0,32.0,1.0,1.0,1694.0,1.0,0.0,883.0,1,0.1562802594840682,0.23381702778349736
85,Pilot,d10012021,eoRdQ,memory_test,21.0,0.0,0.0,52.0,38.0,0.0,1299.0,,,,1,-0.46179936500861707,
86,Pilot,d10012021,eoRdQ,memory_test,22.0,1.0,0.0,37.0,36.0,0.0,1424.0,,,,1,-0.266204547131185,
87,Pilot,d10012021,eoRdQ,memory_test,23.0,1.0,0.0,40.0,27.0,0.0,644.0,,,,1,-1.486716210686361,
88,Pilot,d10012021,eoRdQ,memory_test,24.0,1.0,1.0,12.0,39.0,1.0,1116.0,39.0,0.0,254.0,1,-0.7481501783811776,-0.5083039214860003
89,Pilot,d10012021,eoRdQ,memory_test,25.0,1.0,0.0,48.0,26.0,0.0,2009.0,,,,1,0.649179200535197,
90,Pilot,d10012021,eoRdQ,memory_test,26.0,1.0,1.0,14.0,23.0,0.0,1120.0,14.0,,,0,-0.7418911442090997,
91,Pilot,d10012021,eoRdQ,memory_test,27.0,0.0,0.0,53.0,1.0,0.0,1268.0,,,,1,-0.5103068798422202,
92,Pilot,d10012021,eoRdQ,memory_test,28.0,0.0,0.0,10.0,56.0,0.0,1003.0,,,,1,-0.9249678937423762,
93,Pilot,d10012021,eoRdQ,memory_test,29.0,0.0,1.0,2.0,52.0,1.0,1078.0,52.0,0.0,302.0,1,-0.8076110030159169,-0.45167148020629305
94,Pilot,d10012021,eoRdQ,memory_test,30.0,0.0,0.0,2.0,35.0,1.0,1338.0,,0.0,427.0,0,-0.40077378183085827,-0.30419116437372196
95,Pilot,d10012021,eoRdQ,memory_test,31.0,1.0,1.0,15.0,37.0,1.0,1595.0,37.0,0.0,300.0,1,0.0013691637251420244,-0.4540311652596142
96,Pilot,d10012021,lPMys,memory_test,0.0,1.0,1.0,47.0,40.0,0.0,5508.0,47.0,,,0,2.2836586429092383,
97,Pilot,d10012021,lPMys,memory_test,1.0,0.0,1.0,31.0,10.0,0.0,6380.0,31.0,,,0,2.999730232657967,
98,Pilot,d10012021,lPMys,memory_test,2.0,1.0,1.0,51.0,23.0,1.0,5726.0,23.0,0.0,5607.0,1,2.4626765403464206,3.7090908470432358
99,Pilot,d10012021,lPMys,memory_test,3.0,0.0,1.0,46.0,0.0,1.0,2694.0,0.0,0.0,2133.0,1,-0.02715036345879283,0.9282522363146288
100,Pilot,d10012021,lPMys,memory_test,4.0,1.0,1.0,43.0,8.0,1.0,2754.0,43.0,1.0,506.0,1,0.022120617487220624,-0.3741151844267192
101,Pilot,d10012021,lPMys,memory_test,5.0,1.0,1.0,41.0,17.0,0.0,2792.0,41.0,,,0,0.053325572086362474,
102,Pilot,d10012021,lPMys,memory_test,6.0,0.0,1.0,33.0,7.0,1.0,2717.0,7.0,0.0,1084.0,1,-0.00826315409615434,0.08855744568299143
103,Pilot,d10012021,lPMys,memory_test,7.0,0.0,1.0,56.0,22.0,1.0,1953.0,22.0,0.0,1636.0,1,-0.635646978142059,0.530417812154549
104,Pilot,d10012021,lPMys,memory_test,8.0,1.0,0.0,51.0,37.0,1.0,2067.0,,0.0,720.0,0,-0.5420321143446334,-0.2028142452511516
105,Pilot,d10012021,lPMys,memory_test,9.0,0.0,0.0,38.0,31.0,0.0,3207.0,,,,1,0.3941165236296222,
106,Pilot,d10012021,lPMys,memory_test,10.0,1.0,0.0,41.0,50.0,0.0,2427.0,,,,1,-0.2464062286685527,
107,Pilot,d10012021,lPMys,memory_test,11.0,0.0,0.0,33.0,22.0,0.0,1757.0,,,,1,-0.7965988492323696,
108,Pilot,d10012021,lPMys,memory_test,12.0,0.0,0.0,24.0,2.0,1.0,2395.0,,1.0,420.0,0,-0.2726840851730932,-0.44295574876830246
109,Pilot,d10012021,lPMys,memory_test,13.0,0.0,1.0,2.0,13.0,1.0,1572.0,13.0,0.0,381.0,1,-0.9485177071492444,-0.47417414422553206
110,Pilot,d10012021,lPMys,memory_test,14.0,0.0,0.0,55.0,56.0,1.0,1508.0,,1.0,256.0,0,-1.0010734201583253,-0.5742331040243449
111,Pilot,d10012021,lPMys,memory_test,15.0,0.0,0.0,13.0,49.0,0.0,3131.0,,,,1,0.3317066144313385,
112,Pilot,d10012021,lPMys,memory_test,16.0,1.0,0.0,43.0,40.0,0.0,1707.0,,,,1,-0.8376580000207141,
113,Pilot,d10012021,lPMys,memory_test,17.0,1.0,0.0,47.0,18.0,0.0,3792.0,,,,1,0.8745085878532534,
114,Pilot,d10012021,lPMys,memory_test,18.0,1.0,0.0,17.0,59.0,1.0,2644.0,,0.0,1156.0,0,-0.06820951424713738,0.14619140652710763
115,Pilot,d10012021,lPMys,memory_test,19.0,1.0,1.0,18.0,1.0,0.0,2255.0,1.0,,,0,-0.38764970738045795,
116,Pilot,d10012021,lPMys,memory_test,20.0,1.0,0.0,44.0,1.0,0.0,2357.0,,,,1,-0.3038890397722351,
117,Pilot,d10012021,lPMys,memory_test,21.0,1.0,1.0,57.0,50.0,1.0,2542.0,57.0,1.0,220.0,1,-0.15197018185536024,-0.6030500844464031
118,Pilot,d10012021,lPMys,memory_test,22.0,0.0,0.0,27.0,7.0,0.0,3032.0,,,,1,0.2504094958704163,
119,Pilot,d10012021,lPMys,memory_test,23.0,1.0,1.0,44.0,59.0,1.0,3555.0,59.0,0.0,218.0,1,0.6798882131165003,-0.604651027803184
120,Pilot,d10012021,lPMys,memory_test,24.0,1.0,0.0,23.0,8.0,1.0,3518.0,,1.0,283.0,0,0.6495044415331253,-0.5526203687078013
121,Pilot,d10012021,lPMys,memory_test,25.0,0.0,1.0,24.0,38.0,1.0,2004.0,24.0,1.0,223.0,1,-0.5937666443379476,-0.6006486694112315
122,Pilot,d10012021,lPMys,memory_test,26.0,0.0,0.0,28.0,46.0,0.0,2420.0,,,,1,-0.25215450977892095,
123,Pilot,d10012021,lPMys,memory_test,27.0,1.0,1.0,5.0,37.0,1.0,1231.0,37.0,0.0,993.0,1,-1.2285411155257542,0.015714522949455675
124,Pilot,d10012021,lPMys,memory_test,28.0,0.0,0.0,10.0,0.0,1.0,2055.0,,0.0,1409.0,0,-0.5518863105338361,0.34871074115990486
125,Pilot,d10012021,lPMys,memory_test,29.0,0.0,1.0,27.0,28.0,1.0,1604.0,28.0,0.0,472.0,1,-0.9222398506447039,-0.4013312214919963
126,Pilot,d10012021,lPMys,memory_test,30.0,0.0,1.0,55.0,49.0,1.0,1332.0,55.0,1.0,519.0,1,-1.1456016309332981,-0.3637090526076427
127,Pilot,d10012021,lPMys,memory_test,31.0,1.0,0.0,5.0,57.0,1.0,2630.0,,1.0,258.0,0,-0.07970607646787385,-0.572632160667564
128,Pilot,d09302021,d1IcC,memory_test,0.0,1.0,1.0,6.0,19.0,0.0,3231.0,19.0,,,0,3.4962758680944823,
129,Pilot,d09302021,d1IcC,memory_test,1.0,0.0,1.0,33.0,32.0,1.0,1511.0,33.0,1.0,2194.0,1,-0.010257118656739584,2.392658587800955
130,Pilot,d09302021,d1IcC,memory_test,2.0,1.0,1.0,27.0,0.0,1.0,2032.0,27.0,1.0,723.0,1,1.051896187213834,-0.15427012097334478
131,Pilot,d09302021,d1IcC,memory_test,3.0,0.0,0.0,50.0,45.0,0.0,2126.0,,,,1,1.2435322923037264,
132,Pilot,d09302021,d1IcC,memory_test,4.0,1.0,1.0,3.0,53.0,1.0,2047.0,3.0,1.0,738.0,1,1.0824764167494552,-0.12829872013608135
133,Pilot,d09302021,d1IcC,memory_test,5.0,1.0,0.0,44.0,7.0,1.0,1099.0,,1.0,401.0,0,-0.8501940899017997,-0.7117895256132662
134,Pilot,d09302021,d1IcC,memory_test,6.0,0.0,0.0,29.0,15.0,0.0,1455.0,,,,1,-0.12442330892305843,
135,Pilot,d09302021,d1IcC,memory_test,7.0,1.0,0.0,53.0,23.0,1.0,1223.0,,0.0,2234.0,0,-0.5973975257406651,2.461915656700324
136,Pilot,d09302021,d1IcC,memory_test,8.0,1.0,1.0,51.0,44.0,0.0,1873.0,44.0,,,0,0.7277457541362501,
137,Pilot,d09302021,d1IcC,memory_test,9.0,0.0,0.0,38.0,22.0,1.0,1598.0,,0.0,1509.0,0,0.16710821264986292,1.2066312828992587
138,Pilot,d09302021,d1IcC,memory_test,10.0,0.0,1.0,8.0,5.0,1.0,1717.0,5.0,0.0,754.0,1,0.40971136696579047,-0.1005958925763337
139,Pilot,d09302021,d1IcC,memory_test,11.0,1.0,1.0,37.0,23.0,0.0,1401.0,23.0,,,0,-0.23451213525129447,
140,Pilot,d09302021,d1IcC,memory_test,12.0,0.0,1.0,50.0,54.0,1.0,915.0,54.0,0.0,533.0,1,-1.2253115722054189,-0.4832411982453481
141,Pilot,d09302021,d1IcC,memory_test,13.0,0.0,1.0,10.0,55.0,1.0,1173.0,10.0,1.0,359.0,1,-0.6993316241927355,-0.7845094479576038
142,Pilot,d09302021,d1IcC,memory_test,14.0,1.0,0.0,3.0,6.0,1.0,1333.0,,1.0,593.0,0,-0.3731425091461102,-0.37935559489629445
143,Pilot,d09302021,d1IcC,memory_test,15.0,0.0,1.0,17.0,29.0,1.0,1941.0,29.0,0.0,1309.0,1,0.8663761280310659,0.8603459384024129
144,Pilot,d09302021,d1IcC,memory_test,16.0,1.0,0.0,27.0,51.0,0.0,1888.0,,,,1,0.7583259836718712,
145,Pilot,d09302021,d1IcC,memory_test,17.0,0.0,0.0,33.0,8.0,0.0,1233.0,,,,1,-0.5770107060502511,
146,Pilot,d09302021,d1IcC,memory_test,18.0,1.0,0.0,37.0,46.0,0.0,2207.0,,,,1,1.4086655317960803,
147,Pilot,d09302021,d1IcC,memory_test,19.0,1.0,1.0,13.0,52.0,1.0,1182.0,13.0,1.0,1053.0,1,-0.6809834864713629,0.41710069744645056
148,Pilot,d09302021,d1IcC,memory_test,20.0,0.0,0.0,5.0,55.0,0.0,1086.0,,,,1,-0.876696955499338,
149,Pilot,d09302021,d1IcC,memory_test,21.0,0.0,0.0,10.0,17.0,1.0,1176.0,,1.0,380.0,0,-0.6932155782856113,-0.748149486785435
150,Pilot,d09302021,d1IcC,memory_test,22.0,0.0,0.0,32.0,54.0,0.0,1125.0,,,,1,-0.7971883587067231,
151,Pilot,d09302021,d1IcC,memory_test,23.0,0.0,1.0,22.0,15.0,1.0,1347.0,22.0,1.0,456.0,1,-0.3446009615795305,-0.6165610558766337
152,Pilot,d09302021,d1IcC,memory_test,24.0,1.0,0.0,19.0,20.0,1.0,1778.0,,1.0,383.0,0,0.5340709670773164,-0.7429552066179823
153,Pilot,d09302021,d1IcC,memory_test,25.0,0.0,1.0,59.0,45.0,1.0,1233.0,45.0,0.0,367.0,1,-0.5770107060502511,-0.77065803417773
154,Pilot,d09302021,d1IcC,memory_test,26.0,0.0,1.0,12.0,38.0,1.0,871.0,12.0,1.0,329.0,1,-1.3150135788432407,-0.8364522496321307
155,Pilot,d09302021,d1IcC,memory_test,27.0,1.0,0.0,0.0,13.0,1.0,1568.0,,0.0,626.0,0,0.10594775357862067,-0.3222185130543149
156,Pilot,d09302021,d1IcC,memory_test,28.0,1.0,1.0,20.0,25.0,0.0,1817.0,25.0,,,0,0.6135795638699313,
157,Pilot,d09302021,d1IcC,memory_test,29.0,1.0,0.0,52.0,25.0,1.0,1178.0,,0.0,854.0,0,-0.6891382143475284,0.07254677967208913
158,Pilot,d09302021,d1IcC,memory_test,30.0,1.0,1.0,46.0,7.0,1.0,1100.0,46.0,1.0,447.0,1,-0.8481554079327582,-0.6321438963789917
159,Pilot,d09302021,d1IcC,memory_test,31.0,0.0,0.0,59.0,12.0,0.0,1049.0,,,,1,-0.9521281883538701,
160,Pilot,d10012021,BAWYi,memory_test,0.0,1.0,1.0,2.0,37.0,1.0,2197.0,37.0,0.0,4049.0,1,0.5160533004050067,3.7717583569698703
161,Pilot,d10012021,BAWYi,memory_test,1.0,0.0,0.0,15.0,32.0,1.0,3054.0,,0.0,1064.0,0,2.0134869804713387,0.2957785188855656
162,Pilot,d10012021,BAWYi,memory_test,2.0,1.0,0.0,34.0,59.0,0.0,2101.0,,,,1,0.34831277148275713,
163,Pilot,d10012021,BAWYi,memory_test,3.0,1.0,0.0,14.0,2.0,0.0,2751.0,,,,1,1.4840559360604886,
164,Pilot,d10012021,BAWYi,memory_test,4.0,1.0,0.0,37.0,36.0,0.0,1854.0,,,,1,-0.08326963105678079,
165,Pilot,d10012021,BAWYi,memory_test,5.0,1.0,0.0,7.0,49.0,1.0,1885.0,,0.0,753.0,0,-0.029103418592304368,-0.06637549439557969
166,Pilot,d10012021,BAWYi,memory_test,6.0,0.0,1.0,16.0,27.0,1.0,1437.0,16.0,1.0,1193.0,1,-0.8118925535628023,0.44599674304398285
167,Pilot,d10012021,BAWYi,memory_test,7.0,0.0,1.0,39.0,24.0,1.0,1700.0,39.0,1.0,641.0,1,-0.35235339620288947,-0.1967975184711047
168,Pilot,d10012021,BAWYi,memory_test,8.0,1.0,1.0,43.0,23.0,1.0,2175.0,23.0,0.0,1121.0,1,0.4776127625269912,0.3621540132811453
169,Pilot,d10012021,BAWYi,memory_test,9.0,1.0,1.0,3.0,48.0,1.0,3470.0,3.0,1.0,449.0,1,2.740362605801087,-0.4203781311720047
170,Pilot,d10012021,BAWYi,memory_test,10.0,0.0,1.0,9.0,32.0,1.0,1295.0,32.0,0.0,785.0,1,-1.0600087525936297,-0.02911205894542969
171,Pilot,d10012021,BAWYi,memory_test,11.0,1.0,0.0,17.0,3.0,0.0,2182.0,,,,1,0.4898438427609052,
172,Pilot,d10012021,BAWYi,memory_test,12.0,0.0,0.0,33.0,9.0,0.0,2142.0,,,,1,0.4199519557099679,
173,Pilot,d10012021,BAWYi,memory_test,13.0,1.0,0.0,42.0,23.0,0.0,1511.0,,,,1,-0.6825925625185683,
174,Pilot,d10012021,BAWYi,memory_test,14.0,1.0,1.0,49.0,17.0,1.0,2094.0,49.0,1.0,497.0,1,0.33608169124884313,-0.3644829779967797
175,Pilot,d10012021,BAWYi,memory_test,15.0,0.0,0.0,31.0,8.0,1.0,1686.0,,1.0,231.0,0,-0.37681555667071753,-0.6742352851761516
176,Pilot,d10012021,BAWYi,memory_test,16.0,1.0,1.0,7.0,59.0,0.0,2447.0,59.0,,,0,0.952877594473365,
177,Pilot,d10012021,BAWYi,memory_test,17.0,1.0,1.0,14.0,34.0,1.0,2391.0,14.0,1.0,247.0,1,0.8550289526020527,-0.6556035674510766
178,Pilot,d10012021,BAWYi,memory_test,18.0,0.0,1.0,15.0,13.0,1.0,1583.0,13.0,0.0,697.0,1,-0.5567871658268811,-0.1315865064333422
179,Pilot,d10012021,BAWYi,memory_test,19.0,0.0,0.0,45.0,4.0,1.0,1398.0,,0.0,680.0,0,-0.8800371434374662,-0.15138270651623437
180,Pilot,d10012021,BAWYi,memory_test,20.0,1.0,1.0,36.0,0.0,1.0,1095.0,0.0,0.0,657.0,1,-1.4094681878483164,-0.1781658007460297
181,Pilot,d10012021,BAWYi,memory_test,21.0,1.0,0.0,0.0,43.0,0.0,1186.0,,,,1,-1.250464144807434,
182,Pilot,d10012021,BAWYi,memory_test,22.0,1.0,0.0,22.0,48.0,1.0,1726.0,,1.0,305.0,0,-0.3069236696197802,-0.5880635906976797
183,Pilot,d10012021,BAWYi,memory_test,23.0,0.0,0.0,53.0,24.0,0.0,1757.0,,,,1,-0.2527574571553038,
184,Pilot,d10012021,BAWYi,memory_test,24.0,0.0,0.0,30.0,39.0,0.0,2174.0,,,,1,0.4758654653507177,
185,Pilot,d10012021,BAWYi,memory_test,25.0,0.0,1.0,53.0,45.0,1.0,2641.0,53.0,1.0,289.0,1,1.291853246670411,-0.6066953084227547
186,Pilot,d10012021,BAWYi,memory_test,26.0,1.0,1.0,42.0,22.0,0.0,1854.0,22.0,,,0,-0.08326963105678079,
187,Pilot,d10012021,BAWYi,memory_test,27.0,0.0,1.0,8.0,4.0,1.0,2007.0,4.0,0.0,489.0,1,0.18406683691305445,-0.3737988368593172
188,Pilot,d10012021,BAWYi,memory_test,28.0,0.0,0.0,55.0,16.0,0.0,1303.0,,,,1,-1.0460303751834423,
189,Pilot,d10012021,BAWYi,memory_test,29.0,0.0,1.0,33.0,30.0,1.0,1480.0,33.0,1.0,433.0,1,-0.7367587749830447,-0.4390098488970797
190,Pilot,d10012021,BAWYi,memory_test,30.0,0.0,0.0,13.0,27.0,0.0,1167.0,,,,1,-1.2836627911566292,
191,Pilot,d10012021,BAWYi,memory_test,31.0,0.0,1.0,55.0,31.0,0.0,1110.0,31.0,,,0,-1.383258730204215,
192,Pilot,d10012021,Kmecz,memory_test,0.0,1.0,1.0,55.0,59.0,1.0,1507.0,59.0,1.0,1534.0,1,1.6535886294277167,1.754135626960843
193,Pilot,d10012021,Kmecz,memory_test,1.0,1.0,0.0,26.0,59.0,0.0,1606.0,,,,1,1.9412482185786148,
194,Pilot,d10012021,Kmecz,memory_test,2.0,1.0,1.0,31.0,11.0,1.0,1195.0,31.0,0.0,3129.0,1,0.7470250757400376,4.410286517896913
195,Pilot,d10012021,Kmecz,memory_test,3.0,1.0,0.0,55.0,54.0,1.0,2103.0,,0.0,372.0,0,3.385357469164437,-0.18094107226656372
196,Pilot,d10012021,Kmecz,memory_test,4.0,0.0,1.0,58.0,49.0,1.0,915.0,58.0,1.0,322.0,1,-0.06655760064634102,-0.2642059904777258
197,Pilot,d10012021,Kmecz,memory_test,5.0,1.0,0.0,31.0,22.0,0.0,476.0,,,,1,-1.342139011123556,
198,Pilot,d10012021,Kmecz,memory_test,6.0,1.0,0.0,42.0,11.0,1.0,1013.0,,1.0,589.0,0,0.2181963360888915,0.18042867276987973
199,Pilot,d10012021,Kmecz,memory_test,7.0,0.0,1.0,2.0,53.0,1.0,1062.0,2.0,1.0,290.0,1,0.36057330445650776,-0.3174955381328695
200,Pilot,d10012021,Kmecz,memory_test,8.0,1.0,1.0,29.0,54.0,1.0,1218.0,54.0,0.0,228.0,1,0.8138550813003472,-0.4207440367147105
201,Pilot,d10012021,Kmecz,memory_test,9.0,1.0,0.0,29.0,57.0,1.0,798.0,,0.0,271.0,0,-0.4065189332792207,-0.3491362070531111
202,Pilot,d10012021,Kmecz,memory_test,10.0,0.0,1.0,34.0,9.0,1.0,1071.0,9.0,0.0,282.0,1,0.3867241761974985,-0.33081792504665547
203,Pilot,d10012021,Kmecz,memory_test,11.0,0.0,0.0,17.0,34.0,1.0,711.0,,1.0,280.0,0,-0.6593106934421311,-0.33414852177510196
204,Pilot,d10012021,Kmecz,memory_test,12.0,0.0,1.0,41.0,33.0,1.0,825.0,33.0,0.0,125.0,1,-0.3280663180562484,-0.5922697682297043
205,Pilot,d10012021,Kmecz,memory_test,13.0,0.0,0.0,41.0,2.0,0.0,819.0,,,,1,-0.34550023255024226,
206,Pilot,d10012021,Kmecz,memory_test,14.0,0.0,0.0,58.0,27.0,1.0,1045.0,,1.0,317.0,0,0.3111772133901919,-0.272532482298842
207,Pilot,d10012021,Kmecz,memory_test,15.0,0.0,1.0,17.0,45.0,1.0,784.0,17.0,1.0,267.0,1,-0.4471980670985396,-0.3557974005100041
208,Pilot,d10012021,Kmecz,memory_test,16.0,1.0,1.0,22.0,57.0,1.0,940.0,57.0,0.0,290.0,1,0.006083709745299929,-0.3174955381328695
209,Pilot,d10012021,Kmecz,memory_test,17.0,1.0,0.0,37.0,39.0,1.0,882.0,,1.0,681.0,0,-0.16244413036330707,0.33363612227841793
210,Pilot,d10012021,Kmecz,memory_test,18.0,0.0,0.0,33.0,5.0,1.0,741.0,,1.0,321.0,0,-0.572141120972162,-0.26587128884194905
211,Pilot,d10012021,Kmecz,memory_test,19.0,0.0,0.0,53.0,4.0,0.0,446.0,,,,1,-1.429308583593525,
212,Pilot,d10012021,Kmecz,memory_test,20.0,0.0,0.0,45.0,18.0,1.0,1101.0,,0.0,330.0,0,0.47389374866746764,-0.25088360356393985
213,Pilot,d10012021,Kmecz,memory_test,21.0,0.0,1.0,5.0,46.0,1.0,605.0,46.0,0.0,316.0,1,-0.9673098495026887,-0.27419778066306527
214,Pilot,d10012021,Kmecz,memory_test,22.0,1.0,1.0,43.0,39.0,1.0,829.0,43.0,1.0,286.0,1,-0.3164437083935859,-0.3241567315897625
215,Pilot,d10012021,Kmecz,memory_test,23.0,1.0,0.0,15.0,19.0,1.0,672.0,,0.0,391.0,0,-0.772631137653091,-0.14930040334632214
216,Pilot,d10012021,Kmecz,memory_test,24.0,0.0,0.0,9.0,47.0,1.0,998.0,,1.0,217.0,0,0.17461154985390692,-0.4390623187211662
217,Pilot,d10012021,Kmecz,memory_test,25.0,1.0,1.0,19.0,14.0,1.0,762.0,19.0,1.0,195.0,1,-0.5111224202431837,-0.47569888273407746
218,Pilot,d10012021,Kmecz,memory_test,26.0,0.0,1.0,18.0,27.0,0.0,640.0,18.0,,,0,-0.8656120149543914,
219,Pilot,d10012021,Kmecz,memory_test,27.0,0.0,0.0,49.0,46.0,0.0,1289.0,,,,1,1.0201564028126076,
220,Pilot,d10012021,Kmecz,memory_test,28.0,0.0,1.0,47.0,4.0,1.0,832.0,4.0,1.0,464.0,1,-0.307726751146589,-0.02773362275802549
221,Pilot,d10012021,Kmecz,memory_test,29.0,1.0,1.0,37.0,26.0,1.0,961.0,37.0,1.0,322.0,1,0.06710241047427833,-0.2642059904777258
222,Pilot,d10012021,Kmecz,memory_test,30.0,1.0,1.0,42.0,15.0,1.0,598.0,42.0,1.0,392.0,1,-0.9876494164123483,-0.1476351049820989
223,Pilot,d10012021,Kmecz,memory_test,31.0,1.0,0.0,43.0,14.0,1.0,569.0,,1.0,286.0,0,-1.0719133364666518,-0.3241567315897625
224,Pilot,d10012021,OH30k,memory_test,0.0,1.0,0.0,6.0,49.0,1.0,3593.0,,0.0,2420.0,0,2.9508282078673798,4.156014741930285
225,Pilot,d10012021,OH30k,memory_test,1.0,1.0,1.0,37.0,49.0,0.0,1946.0,49.0,,,0,0.38028474796684286,
226,Pilot,d10012021,OH30k,memory_test,2.0,0.0,0.0,33.0,27.0,1.0,1429.0,,1.0,629.0,0,-0.4266193010729735,0.3858917337217645
227,Pilot,d10012021,OH30k,memory_test,3.0,1.0,0.0,22.0,12.0,1.0,1218.0,,1.0,500.0,0,-0.7559360406230726,0.11434183530808542
228,Pilot,d10012021,OH30k,memory_test,4.0,1.0,1.0,32.0,22.0,0.0,2442.0,22.0,,,0,1.1544131973357963,
229,Pilot,d10012021,OH30k,memory_test,5.0,1.0,1.0,31.0,43.0,1.0,2109.0,43.0,0.0,532.0,1,0.6346858311263981,0.18170305041845541
230,Pilot,d10012021,OH30k,memory_test,6.0,0.0,1.0,51.0,14.0,1.0,2185.0,14.0,0.0,263.0,1,0.7533022870780925,-0.38455216410309234
231,Pilot,d10012021,OH30k,memory_test,7.0,0.0,0.0,5.0,47.0,1.0,1499.0,,1.0,197.0,0,-0.317367302170097,-0.5234846702682304
232,Pilot,d10012021,OH30k,memory_test,8.0,1.0,0.0,46.0,50.0,1.0,2281.0,,0.0,151.0,0,0.9031335998591803,-0.6203164169893873
233,Pilot,d10012021,OH30k,memory_test,9.0,0.0,0.0,58.0,17.0,1.0,1050.0,,0.0,293.0,0,-1.0181408379899761,-0.32140102493712047
234,Pilot,d10012021,OH30k,memory_test,10.0,0.0,0.0,51.0,54.0,1.0,1289.0,,0.0,278.0,0,-0.6451232988787264,-0.35297659452010643
235,Pilot,d10012021,OH30k,memory_test,11.0,0.0,1.0,17.0,47.0,0.0,3466.0,17.0,,,0,2.7526138670007323,
236,Pilot,d10012021,OH30k,memory_test,12.0,1.0,1.0,6.0,50.0,1.0,1403.0,50.0,0.0,357.0,1,-0.46719861495118475,-0.18667859471638049
237,Pilot,d10012021,OH30k,memory_test,13.0,1.0,1.0,59.0,48.0,1.0,1685.0,59.0,1.0,246.0,1,-0.027069133656739488,-0.4203378096304764
238,Pilot,d10012021,OH30k,memory_test,14.0,1.0,1.0,55.0,46.0,1.0,1369.0,55.0,1.0,146.0,1,-0.5202638715611534,-0.6308416068503827
239,Pilot,d10012021,OH30k,memory_test,15.0,0.0,1.0,44.0,27.0,1.0,1129.0,44.0,1.0,229.0,1,-0.8948421535138728,-0.45612345515786046
240,Pilot,d10012021,OH30k,memory_test,16.0,1.0,0.0,2.0,48.0,0.0,1178.0,,,,1,-0.8183657542818592,
241,Pilot,d10012021,OH30k,memory_test,17.0,1.0,0.0,55.0,38.0,1.0,1419.0,,1.0,213.0,0,-0.4422267294876701,-0.4898040627130455
242,Pilot,d10012021,OH30k,memory_test,18.0,0.0,1.0,5.0,53.0,1.0,1193.0,5.0,1.0,133.0,1,-0.7949546116598142,-0.6582071004889705
243,Pilot,d10012021,OH30k,memory_test,19.0,0.0,0.0,39.0,44.0,0.0,1563.0,,,,1,-0.2174797603160385,
244,Pilot,d10012021,OH30k,memory_test,20.0,0.0,1.0,58.0,18.0,1.0,1643.0,18.0,0.0,277.0,1,-0.09262033299846538,-0.3550816324923055
245,Pilot,d10012021,OH30k,memory_test,21.0,0.0,0.0,11.0,14.0,0.0,1610.0,,,,1,-0.1441248467669643,
246,Pilot,d10012021,OH30k,memory_test,22.0,0.0,0.0,34.0,53.0,1.0,1144.0,,1.0,374.0,0,-0.8714310108918277,-0.15089294918899643
247,Pilot,d10012021,OH30k,memory_test,23.0,1.0,1.0,12.0,2.0,0.0,1145.0,2.0,,,0,-0.869870268050358,
248,Pilot,d10012021,OH30k,memory_test,24.0,0.0,1.0,33.0,11.0,0.0,1370.0,33.0,,,0,-0.5187031287196837,
249,Pilot,d10012021,OH30k,memory_test,25.0,0.0,1.0,4.0,54.0,1.0,1406.0,54.0,0.0,710.0,1,-0.4625163864267758,0.5563998094698885
250,Pilot,d10012021,OH30k,memory_test,26.0,1.0,0.0,43.0,32.0,1.0,1035.0,,1.0,259.0,0,-1.0415519806120213,-0.3929723159918886
251,Pilot,d10012021,OH30k,memory_test,27.0,1.0,1.0,25.0,38.0,1.0,1658.0,25.0,1.0,741.0,1,-0.06920919037642041,0.6216559866080594
252,Pilot,d10012021,OH30k,memory_test,28.0,1.0,0.0,37.0,59.0,1.0,2072.0,,0.0,404.0,0,0.5769383459920205,-0.08774181002302457
253,Pilot,d10012021,OH30k,memory_test,29.0,0.0,0.0,18.0,4.0,0.0,1879.0,,,,1,0.2757149775883753,
254,Pilot,d10012021,OH30k,memory_test,30.0,0.0,1.0,39.0,34.0,1.0,2713.0,34.0,0.0,453.0,1,1.5773745073740753,0.015405050614729491
255,Pilot,d10012021,OH30k,memory_test,31.0,1.0,0.0,31.0,25.0,0.0,1354.0,,,,1,-0.5436750141831983,
256,Pilot,d09302021,c4z0I,memory_test,0.0,1.0,1.0,7.0,37.0,1.0,2949.0,37.0,0.0,5999.0,1,1.9577385322663674,4.3917736627544945
257,Pilot,d09302021,c4z0I,memory_test,1.0,0.0,0.0,2.0,32.0,1.0,3733.0,,0.0,1628.0,0,2.835118744797604,0.758477237164488
258,Pilot,d09302021,c4z0I,memory_test,2.0,1.0,1.0,41.0,59.0,1.0,841.0,41.0,0.0,795.0,1,-0.4013398963252739,0.06606453468988824
259,Pilot,d09302021,c4z0I,memory_test,3.0,0.0,1.0,32.0,29.0,1.0,632.0,32.0,1.0,260.0,1,-0.6352333458393408,-0.3786423030338943
260,Pilot,d09302021,c4z0I,memory_test,4.0,1.0,0.0,48.0,7.0,1.0,972.0,,1.0,309.0,0,-0.2547368250987535,-0.3379121440648002
261,Pilot,d09302021,c4z0I,memory_test,5.0,1.0,1.0,33.0,12.0,0.0,1665.0,33.0,,,0,0.5208046127636788,
262,Pilot,d09302021,c4z0I,memory_test,6.0,1.0,0.0,11.0,37.0,0.0,3469.0,,,,1,2.5396743875166776,
263,Pilot,d09302021,c4z0I,memory_test,7.0,0.0,1.0,27.0,58.0,0.0,2968.0,58.0,,,0,1.9790015731312827,
264,Pilot,d09302021,c4z0I,memory_test,8.0,0.0,1.0,2.0,39.0,1.0,1235.0,39.0,0.0,974.0,1,0.039588424768230226,0.2148542990871912
265,Pilot,d09302021,c4z0I,memory_test,9.0,0.0,1.0,47.0,55.0,1.0,801.0,47.0,1.0,891.0,1,-0.4461041928829901,0.14586239715995017
266,Pilot,d09302021,c4z0I,memory_test,10.0,1.0,0.0,59.0,46.0,1.0,394.0,,1.0,601.0,0,-0.9015809103577519,-0.09519364571836188
267,Pilot,d09302021,c4z0I,memory_test,11.0,0.0,0.0,47.0,49.0,1.0,491.0,,1.0,728.0,0,-0.7930274912052903,0.010372276507657529
268,Pilot,d09302021,c4z0I,memory_test,12.0,1.0,1.0,3.0,54.0,1.0,481.0,54.0,0.0,274.0,1,-0.8042185653447194,-0.3670051147570103
269,Pilot,d09302021,c4z0I,memory_test,13.0,0.0,0.0,29.0,31.0,0.0,749.0,,,,1,-0.504297778408021,
270,Pilot,d09302021,c4z0I,memory_test,14.0,1.0,0.0,40.0,3.0,0.0,1761.0,,,,1,0.6282389245021976,
271,Pilot,d09302021,c4z0I,memory_test,15.0,1.0,1.0,40.0,22.0,0.0,978.0,40.0,,,0,-0.24802218061509607,
272,Pilot,d09302021,c4z0I,memory_test,16.0,0.0,1.0,23.0,16.0,1.0,866.0,16.0,0.0,335.0,1,-0.3733622109767013,-0.31630022297915844
273,Pilot,d09302021,c4z0I,memory_test,17.0,0.0,0.0,13.0,55.0,1.0,542.0,,1.0,254.0,0,-0.7359530130942021,-0.3836296694382732
274,Pilot,d09302021,c4z0I,memory_test,18.0,1.0,1.0,20.0,48.0,1.0,701.0,48.0,0.0,174.0,1,-0.5580149342772804,-0.4501278881633248
275,Pilot,d09302021,c4z0I,memory_test,19.0,1.0,0.0,54.0,12.0,1.0,613.0,,1.0,395.0,0,-0.656496386704256,-0.26642655893536976
276,Pilot,d09302021,c4z0I,memory_test,20.0,0.0,0.0,39.0,44.0,0.0,1485.0,,,,1,0.3193652782539562,
277,Pilot,d09302021,c4z0I,memory_test,21.0,0.0,1.0,31.0,0.0,1.0,1060.0,31.0,1.0,358.0,1,-0.15625537267177794,-0.2971819850957061
278,Pilot,d09302021,c4z0I,memory_test,22.0,1.0,0.0,20.0,41.0,1.0,451.0,,0.0,397.0,0,-0.8377917877630064,-0.26476410346724344
279,Pilot,d09302021,c4z0I,memory_test,23.0,0.0,0.0,0.0,58.0,0.0,1002.0,,,,1,-0.2211636026804664,
280,Pilot,d09302021,c4z0I,memory_test,24.0,1.0,1.0,11.0,1.0,1.0,957.0,1.0,0.0,171.0,1,-0.27152343630789705,-0.45262157136551423
281,Pilot,d09302021,c4z0I,memory_test,25.0,1.0,0.0,22.0,1.0,1.0,501.0,,0.0,243.0,0,-0.7818364170658613,-0.3927731745129678
282,Pilot,d09302021,c4z0I,memory_test,26.0,0.0,0.0,27.0,16.0,1.0,374.0,,0.0,259.0,0,-0.92396305863661,-0.3794735307679575
283,Pilot,d09302021,c4z0I,memory_test,27.0,0.0,0.0,17.0,23.0,1.0,450.0,,1.0,393.0,0,-0.8389108951769493,-0.26808901440349603
284,Pilot,d09302021,c4z0I,memory_test,28.0,1.0,0.0,33.0,6.0,1.0,1353.0,,1.0,673.0,0,0.1716430996134929,-0.03534524886581544
285,Pilot,d09302021,c4z0I,memory_test,29.0,0.0,1.0,44.0,13.0,1.0,1657.0,13.0,0.0,139.0,1,0.5118517534521356,-0.47922085885553484
286,Pilot,d09302021,c4z0I,memory_test,30.0,1.0,1.0,46.0,6.0,0.0,1050.0,46.0,,,0,-0.167446446811207,
287,Pilot,d09302021,c4z0I,memory_test,31.0,0.0,1.0,49.0,17.0,1.0,1207.0,17.0,0.0,207.0,1,0.008253417177828916,-0.422697372939241
288,Pilot,d09302021,h3ty7,memory_test,0.0,1.0,0.0,47.0,24.0,0.0,2711.0,,,,1,0.44534885230809845,
289,Pilot,d09302021,h3ty7,memory_test,1.0,1.0,1.0,6.0,16.0,0.0,3632.0,16.0,,,0,1.3277827218270093,
290,Pilot,d09302021,h3ty7,memory_test,2.0,1.0,1.0,36.0,20.0,1.0,3004.0,36.0,1.0,2907.0,1,0.7260797141637345,2.804274310375355
291,Pilot,d09302021,h3ty7,memory_test,3.0,0.0,0.0,1.0,59.0,0.0,3747.0,,,,1,1.4379671897908255,
292,Pilot,d09302021,h3ty7,memory_test,4.0,0.0,1.0,57.0,14.0,0.0,2254.0,57.0,,,0,0.007485357877976645,
293,Pilot,d09302021,h3ty7,memory_test,5.0,1.0,0.0,36.0,6.0,0.0,1280.0,,,,1,-0.9257291794851277,
294,Pilot,d09302021,h3ty7,memory_test,6.0,1.0,1.0,31.0,39.0,1.0,1678.0,39.0,0.0,1211.0,1,-0.5443951077494854,0.3021035295110965
295,Pilot,d09302021,h3ty7,memory_test,7.0,1.0,1.0,47.0,45.0,0.0,2353.0,47.0,,,0,0.10233981290769668,
296,Pilot,d09302021,h3ty7,memory_test,8.0,1.0,0.0,22.0,16.0,0.0,2183.0,,,,1,-0.060541574517075106,
297,Pilot,d09302021,h3ty7,memory_test,9.0,0.0,1.0,29.0,10.0,1.0,1169.0,29.0,1.0,1344.0,1,-1.0320811442154199,0.4983232900387771
298,Pilot,d09302021,h3ty7,memory_test,10.0,1.0,0.0,31.0,12.0,0.0,4174.0,,,,1,1.8470869099695169,
299,Pilot,d09302021,h3ty7,memory_test,11.0,1.0,1.0,25.0,22.0,1.0,2172.0,25.0,1.0,576.0,1,-0.07108095840926622,-0.6347351767676797
300,Pilot,d09302021,h3ty7,memory_test,12.0,0.0,1.0,23.0,35.0,1.0,4447.0,35.0,0.0,709.0,1,2.1086552556575326,-0.43851541623999896
301,Pilot,d09302021,h3ty7,memory_test,13.0,0.0,0.0,54.0,23.0,1.0,1223.0,,1.0,899.0,0,-0.9803423505628452,-0.1582014726290266
302,Pilot,d09302021,h3ty7,memory_test,14.0,0.0,1.0,30.0,37.0,1.0,1508.0,30.0,1.0,382.0,1,-0.7072764951742573,-0.9209504665599356
303,Pilot,d09302021,h3ty7,memory_test,15.0,0.0,0.0,57.0,53.0,1.0,2005.0,,1.0,453.0,0,-0.23108796840889498,-0.8162015718421513
304,Pilot,d09302021,h3ty7,memory_test,16.0,0.0,0.0,10.0,52.0,1.0,2669.0,,0.0,545.0,0,0.405107568356096,-0.6804706096726277
305,Pilot,d09302021,h3ty7,memory_test,17.0,1.0,0.0,45.0,0.0,0.0,2819.0,,,,1,0.5488264396132476,
306,Pilot,d09302021,h3ty7,memory_test,18.0,1.0,1.0,0.0,42.0,0.0,5013.0,0.0,,,0,2.6509544632011846,
307,Pilot,d09302021,h3ty7,memory_test,19.0,0.0,0.0,37.0,29.0,0.0,911.0,,,,1,-1.2792776027777206,
308,Pilot,d09302021,h3ty7,memory_test,20.0,1.0,0.0,25.0,50.0,0.0,2389.0,,,,1,0.13683234200941308,
309,Pilot,d09302021,h3ty7,memory_test,21.0,0.0,0.0,27.0,30.0,0.0,1027.0,,,,1,-1.1681350090055234,
310,Pilot,d09302021,h3ty7,memory_test,22.0,0.0,0.0,14.0,35.0,0.0,1828.0,,,,1,-0.40067623649233386,
311,Pilot,d09302021,h3ty7,memory_test,23.0,0.0,0.0,28.0,3.0,0.0,1925.0,,,,1,-0.3077380330793758,
312,Pilot,d09302021,h3ty7,memory_test,24.0,0.0,1.0,53.0,52.0,1.0,1429.0,52.0,0.0,1505.0,1,-0.7829684340363571,0.7358524738354432
313,Pilot,d09302021,h3ty7,memory_test,25.0,1.0,1.0,44.0,24.0,0.0,1764.0,44.0,,,0,-0.4619962882287185,
314,Pilot,d09302021,h3ty7,memory_test,26.0,0.0,1.0,54.0,3.0,1.0,2877.0,54.0,1.0,757.0,1,0.6043977364993462,-0.3676992620645954
315,Pilot,d09302021,h3ty7,memory_test,27.0,0.0,1.0,59.0,28.0,1.0,1468.0,28.0,0.0,1225.0,1,-0.7456015275094976,0.32275824114558915
316,Pilot,d09302021,h3ty7,memory_test,28.0,1.0,0.0,39.0,42.0,0.0,1344.0,,,,1,-0.864409127748743,
317,Pilot,d09302021,h3ty7,memory_test,29.0,1.0,0.0,20.0,44.0,0.0,1028.0,,,,1,-1.1671768831971423,
318,Pilot,d09302021,h3ty7,memory_test,30.0,0.0,1.0,27.0,1.0,1.0,2019.0,1.0,0.0,568.0,1,-0.21767420709156082,-0.6465378691302469
319,Pilot,d09302021,h3ty7,memory_test,31.0,1.0,1.0,50.0,12.0,0.0,1828.0,12.0,,,0,-0.40067623649233386,
320,Pilot,d10012021,11A0U,memory_test,0.0,1.0,0.0,15.0,51.0,0.0,3077.0,,,,1,2.0863169671066912,
321,Pilot,d10012021,11A0U,memory_test,1.0,1.0,0.0,4.0,52.0,1.0,1721.0,,1.0,1608.0,0,0.08663800799965939,3.371276916965861
322,Pilot,d10012021,11A0U,memory_test,2.0,0.0,0.0,39.0,43.0,0.0,1514.0,,,,1,-0.21862271805871497,
323,Pilot,d10012021,11A0U,memory_test,3.0,0.0,1.0,20.0,24.0,1.0,1146.0,24.0,0.0,788.0,1,-0.7613084532736027,0.7335937928426021
324,Pilot,d10012021,11A0U,memory_test,4.0,0.0,1.0,1.0,7.0,1.0,1922.0,1.0,1.0,911.0,1,0.3830505970708345,1.129246261461091
325,Pilot,d10012021,11A0U,memory_test,5.0,1.0,0.0,11.0,14.0,0.0,1484.0,,,,1,-0.2628634029947112,
326,Pilot,d10012021,11A0U,memory_test,6.0,0.0,1.0,17.0,19.0,1.0,1180.0,17.0,1.0,551.0,1,-0.7111690103461402,-0.0287609637637545
327,Pilot,d10012021,11A0U,memory_test,7.0,0.0,0.0,19.0,1.0,0.0,3229.0,,,,1,2.310469770782406,
328,Pilot,d10012021,11A0U,memory_test,8.0,1.0,1.0,14.0,33.0,1.0,1095.0,14.0,1.0,372.0,1,-0.8365176176647964,-0.6045478896394415
329,Pilot,d10012021,11A0U,memory_test,9.0,1.0,0.0,29.0,30.0,0.0,1589.0,,,,1,-0.10802100571872426,
330,Pilot,d10012021,11A0U,memory_test,10.0,1.0,1.0,30.0,15.0,1.0,1465.0,15.0,0.0,411.0,1,-0.29088250345417554,-0.47909710690674995
331,Pilot,d10012021,11A0U,memory_test,11.0,0.0,0.0,55.0,40.0,0.0,1641.0,,,,1,-0.03133715182966403,
332,Pilot,d10012021,11A0U,memory_test,12.0,0.0,1.0,16.0,55.0,1.0,1611.0,55.0,0.0,533.0,1,-0.07557783676566032,-0.08666132502499677
333,Pilot,d10012021,11A0U,memory_test,13.0,1.0,1.0,29.0,13.0,1.0,1281.0,29.0,1.0,477.0,1,-0.5622253710616194,-0.2667957822821949
334,Pilot,d10012021,11A0U,memory_test,14.0,1.0,1.0,22.0,42.0,0.0,3868.0,42.0,,,0,3.252796359919127,
335,Pilot,d10012021,11A0U,memory_test,15.0,0.0,0.0,48.0,45.0,0.0,1281.0,,,,1,-0.5622253710616194,
336,Pilot,d10012021,11A0U,memory_test,16.0,0.0,1.0,44.0,48.0,1.0,2265.0,44.0,1.0,417.0,1,0.8888690948390586,-0.4597969864863358
337,Pilot,d10012021,11A0U,memory_test,17.0,1.0,1.0,51.0,18.0,0.0,2458.0,18.0,,,0,1.1734841679273014,
338,Pilot,d10012021,11A0U,memory_test,18.0,0.0,1.0,45.0,40.0,1.0,1490.0,45.0,1.0,471.0,1,-0.254015266007512,-0.28609590270260904
339,Pilot,d10012021,11A0U,memory_test,19.0,0.0,1.0,43.0,23.0,1.0,1205.0,23.0,0.0,476.0,1,-0.6743017728994767,-0.2700124690189306
340,Pilot,d10012021,11A0U,memory_test,20.0,1.0,1.0,11.0,56.0,1.0,1780.0,56.0,0.0,417.0,1,0.1736446883737854,-0.4597969864863358
341,Pilot,d10012021,11A0U,memory_test,21.0,0.0,0.0,20.0,17.0,0.0,1308.0,,,,1,-0.5224087546192228,
342,Pilot,d10012021,11A0U,memory_test,22.0,1.0,0.0,41.0,18.0,1.0,2051.0,,0.0,391.0,0,0.5732855422956186,-0.5434308416414636
343,Pilot,d10012021,11A0U,memory_test,23.0,1.0,0.0,33.0,42.0,0.0,1593.0,,,,1,-0.10212224772725809,
344,Pilot,d10012021,11A0U,memory_test,24.0,1.0,1.0,4.0,41.0,0.0,1352.0,4.0,,,0,-0.4575224167130949,
345,Pilot,d10012021,11A0U,memory_test,25.0,0.0,0.0,57.0,24.0,1.0,1062.0,,0.0,416.0,0,-0.8851823710943924,-0.4630136732230715
346,Pilot,d10012021,11A0U,memory_test,26.0,0.0,1.0,57.0,39.0,1.0,1434.0,39.0,0.0,349.0,1,-0.3365978778880384,-0.6785316845843622
347,Pilot,d10012021,11A0U,memory_test,27.0,1.0,1.0,3.0,52.0,1.0,1871.0,3.0,1.0,607.0,1,0.3078414326796408,0.15137349349344367
348,Pilot,d10012021,11A0U,memory_test,28.0,0.0,0.0,23.0,16.0,0.0,860.0,,,,1,-1.1830696496634339,
349,Pilot,d10012021,11A0U,memory_test,29.0,1.0,0.0,3.0,22.0,0.0,1033.0,,,,1,-0.9279483665325221,
350,Pilot,d10012021,11A0U,memory_test,30.0,1.0,0.0,13.0,56.0,0.0,1043.0,,,,1,-0.9132014715538567,
351,Pilot,d10012021,11A0U,memory_test,31.0,0.0,0.0,44.0,7.0,1.0,1283.0,,1.0,324.0,0,-0.5592759920658864,-0.7589488530027543
352,Pilot,d10012021,5Mz5m,memory_test,0.0,0.0,0.0,2.0,58.0,0.0,2261.0,,,,1,0.7169644743802037,
353,Pilot,d10012021,5Mz5m,memory_test,1.0,1.0,1.0,5.0,35.0,0.0,1405.0,5.0,,,0,-0.13130310000743192,
354,Pilot,d10012021,5Mz5m,memory_test,2.0,1.0,0.0,46.0,33.0,1.0,1238.0,,1.0,4380.0,0,-0.2967945543564216,3.1395910075562674
355,Pilot,d10012021,5Mz5m,memory_test,3.0,0.0,1.0,54.0,26.0,1.0,2707.0,54.0,1.0,1314.0,1,1.1589356638391821,0.07920757549313459
356,Pilot,d10012021,5Mz5m,memory_test,4.0,0.0,1.0,59.0,47.0,1.0,2488.0,47.0,0.0,1233.0,1,0.9419139362797286,-0.0016440415965959208
357,Pilot,d10012021,5Mz5m,memory_test,5.0,1.0,0.0,23.0,51.0,1.0,1703.0,,1.0,1057.0,0,0.1640050041602263,-0.17732162934712148
358,Pilot,d10012021,5Mz5m,memory_test,6.0,0.0,1.0,25.0,24.0,1.0,1410.0,25.0,1.0,1029.0,1,-0.12634826604488733,-0.20527033648925055
359,Pilot,d10012021,5Mz5m,memory_test,7.0,0.0,0.0,22.0,59.0,1.0,566.0,,1.0,426.0,0,-0.9627242389224159,-0.8071657081572444
360,Pilot,d10012021,5Mz5m,memory_test,8.0,1.0,1.0,7.0,44.0,0.0,1024.0,44.0,,,0,-0.5088614479533305,
361,Pilot,d10012021,5Mz5m,memory_test,9.0,1.0,1.0,8.0,36.0,1.0,1135.0,8.0,1.0,652.0,1,-0.3988641339848404,-0.5815797147957741
362,Pilot,d10012021,5Mz5m,memory_test,10.0,0.0,1.0,50.0,19.0,1.0,1267.0,19.0,0.0,818.0,1,-0.26805651737366293,-0.4158838081674375
363,Pilot,d10012021,5Mz5m,memory_test,11.0,1.0,0.0,8.0,7.0,0.0,1276.0,,,,1,-0.2591378162410826,
364,Pilot,d10012021,5Mz5m,memory_test,12.0,1.0,0.0,40.0,5.0,0.0,1235.0,,,,1,-0.29976745473394834,
365,Pilot,d10012021,5Mz5m,memory_test,13.0,0.0,0.0,24.0,43.0,0.0,1603.0,,,,1,0.06490832490933426,
366,Pilot,d10012021,5Mz5m,memory_test,14.0,0.0,1.0,3.0,13.0,1.0,874.0,13.0,0.0,990.0,1,-0.6575064668296685,-0.24419889286578747
367,Pilot,d10012021,5Mz5m,memory_test,15.0,1.0,1.0,6.0,4.0,1.0,568.0,4.0,0.0,1185.0,1,-0.9607423053373981,-0.04955611098310289
368,Pilot,d10012021,5Mz5m,memory_test,16.0,0.0,1.0,43.0,2.0,1.0,690.0,43.0,1.0,821.0,1,-0.8398443566513099,-0.41288930383078076
369,Pilot,d10012021,5Mz5m,memory_test,17.0,0.0,0.0,13.0,50.0,0.0,814.0,,,,1,-0.7169644743802037,
370,Pilot,d10012021,5Mz5m,memory_test,18.0,1.0,0.0,10.0,35.0,0.0,1399.0,,,,1,-0.13724890076248544,
371,Pilot,d10012021,5Mz5m,memory_test,19.0,1.0,1.0,10.0,52.0,0.0,1004.0,10.0,,,0,-0.5286807838035089,
372,Pilot,d10012021,5Mz5m,memory_test,20.0,1.0,1.0,23.0,46.0,0.0,1203.0,23.0,,,0,-0.3314783920942338,
373,Pilot,d10012021,5Mz5m,memory_test,21.0,1.0,0.0,36.0,4.0,1.0,1438.0,,0.0,338.0,0,-0.09860119585463756,-0.8950045020325071
374,Pilot,d10012021,5Mz5m,memory_test,22.0,0.0,1.0,9.0,58.0,1.0,876.0,58.0,0.0,1545.0,1,-0.6555245332446507,0.3097844094156994
375,Pilot,d10012021,5Mz5m,memory_test,23.0,1.0,0.0,6.0,30.0,0.0,1148.0,,,,1,-0.3859815656822244,
376,Pilot,d10012021,5Mz5m,memory_test,24.0,0.0,0.0,39.0,19.0,0.0,929.0,,,,1,-0.6030032932416779,
377,Pilot,d10012021,5Mz5m,memory_test,25.0,1.0,1.0,30.0,51.0,0.0,842.0,30.0,,,0,-0.6892174041899539,
378,Pilot,d10012021,5Mz5m,memory_test,26.0,0.0,0.0,26.0,47.0,1.0,3417.0,,0.0,671.0,0,1.8625220865205154,-0.5626145206636151
379,Pilot,d10012021,5Mz5m,memory_test,27.0,1.0,0.0,44.0,52.0,0.0,5370.0,,,,1,3.7978802322904364,
380,Pilot,d10012021,5Mz5m,memory_test,28.0,0.0,0.0,25.0,3.0,1.0,3460.0,,1.0,2872.0,0,1.905133658598399,1.6343534943301734
381,Pilot,d10012021,5Mz5m,memory_test,29.0,0.0,1.0,39.0,22.0,1.0,1650.0,22.0,0.0,351.0,1,0.11148376415725351,-0.8820283165736615
382,Pilot,d10012021,5Mz5m,memory_test,30.0,0.0,0.0,54.0,9.0,1.0,774.0,,1.0,1307.0,0,-0.7566031460805606,0.07222039870760233
383,Pilot,d10012021,5Mz5m,memory_test,31.0,1.0,1.0,33.0,40.0,0.0,1426.0,33.0,,,0,-0.1104927973647446,
384,Pilot,d09302021,mRuyP,memory_test,0.0,0.0,1.0,16.0,22.0,0.0,2994.0,16.0,,,0,3.3177297555959644,
385,Pilot,d09302021,mRuyP,memory_test,1.0,0.0,1.0,30.0,51.0,1.0,1532.0,51.0,0.0,2470.0,1,-0.3580385652840791,2.4039618963661558
386,Pilot,d09302021,mRuyP,memory_test,2.0,0.0,0.0,16.0,42.0,1.0,2172.0,,0.0,1479.0,0,1.2510529021326293,0.3848858017296304
387,Pilot,d09302021,mRuyP,memory_test,3.0,1.0,1.0,46.0,52.0,0.0,1788.0,52.0,,,0,0.28559802168260423,
388,Pilot,d09302021,mRuyP,memory_test,4.0,0.0,1.0,38.0,19.0,1.0,1463.0,19.0,0.0,1589.0,1,-0.531518739114943,0.6090012108214747
389,Pilot,d09302021,mRuyP,memory_test,5.0,1.0,0.0,49.0,46.0,0.0,2339.0,,,,1,1.6709252069116767,
390,Pilot,d09302021,mRuyP,memory_test,6.0,0.0,1.0,14.0,53.0,1.0,1773.0,14.0,1.0,1431.0,1,0.24788494041502515,0.2870899868531892
391,Pilot,d09302021,mRuyP,memory_test,7.0,0.0,0.0,38.0,57.0,0.0,1515.0,,,,1,-0.40078005738733546,
392,Pilot,d09302021,mRuyP,memory_test,8.0,1.0,0.0,6.0,58.0,1.0,1340.0,,1.0,1503.0,0,-0.8407660055090916,0.433783709167851
393,Pilot,d09302021,mRuyP,memory_test,9.0,1.0,0.0,54.0,24.0,1.0,1708.0,,0.0,1886.0,0,0.0844615882555157,1.2141128153694545
394,Pilot,d09302021,mRuyP,memory_test,10.0,0.0,1.0,36.0,9.0,0.0,1949.0,36.0,,,0,0.69038509395462,
395,Pilot,d09302021,mRuyP,memory_test,11.0,0.0,0.0,14.0,12.0,1.0,1077.0,,1.0,998.0,0,-1.5020020304006452,-0.5951097598447073
396,Pilot,d09302021,mRuyP,memory_test,12.0,1.0,0.0,11.0,7.0,0.0,1851.0,,,,1,0.4439929630064365,
397,Pilot,d09302021,mRuyP,memory_test,13.0,1.0,1.0,28.0,8.0,1.0,1458.0,8.0,0.0,1854.0,1,-0.5440897662041361,1.148915605451827
398,Pilot,d09302021,mRuyP,memory_test,14.0,1.0,1.0,6.0,17.0,1.0,1091.0,6.0,1.0,1430.0,1,-1.4668031545509048,0.2850525740432634
399,Pilot,d09302021,mRuyP,memory_test,15.0,0.0,1.0,32.0,40.0,0.0,1533.0,32.0,,,0,-0.35552435986624054,
400,Pilot,d09302021,mRuyP,memory_test,16.0,0.0,0.0,22.0,36.0,1.0,1683.0,,0.0,1390.0,0,0.02160645280955053,0.20355606164622905
401,Pilot,d09302021,mRuyP,memory_test,17.0,1.0,0.0,17.0,8.0,1.0,2090.0,,0.0,1063.0,0,1.0448880578698636,-0.46267792719952644
402,Pilot,d09302021,mRuyP,memory_test,18.0,0.0,1.0,57.0,12.0,1.0,1930.0,57.0,1.0,934.0,1,0.6426151910156864,-0.7255041796799622
403,Pilot,d09302021,mRuyP,memory_test,19.0,1.0,0.0,45.0,28.0,0.0,1707.0,,,,1,0.0819473828376771,
404,Pilot,d09302021,mRuyP,memory_test,20.0,1.0,1.0,54.0,25.0,1.0,1372.0,25.0,0.0,903.0,1,-0.7603114321382562,-0.7886639767876638
405,Pilot,d09302021,mRuyP,memory_test,21.0,1.0,1.0,49.0,11.0,0.0,1443.0,49.0,,,0,-0.5818028474717152,
406,Pilot,d09302021,mRuyP,memory_test,22.0,0.0,0.0,32.0,30.0,1.0,1595.0,,1.0,1672.0,0,-0.19964362396024687,0.778106474045321
407,Pilot,d09302021,mRuyP,memory_test,23.0,1.0,1.0,45.0,47.0,1.0,1653.0,45.0,1.0,1023.0,1,-0.05381970972560768,-0.5441744395965608
408,Pilot,d09302021,mRuyP,memory_test,24.0,0.0,0.0,34.0,40.0,1.0,1523.0,,1.0,743.0,0,-0.3806664140446266,-1.114650026375801
409,Pilot,d09302021,mRuyP,memory_test,25.0,1.0,1.0,7.0,58.0,0.0,1771.0,7.0,,,0,0.24285652957934795,
410,Pilot,d09302021,mRuyP,memory_test,26.0,0.0,1.0,34.0,42.0,1.0,1060.0,34.0,1.0,862.0,1,-1.5447435225039017,-0.8721979019946239
411,Pilot,d09302021,mRuyP,memory_test,27.0,1.0,1.0,24.0,2.0,1.0,1588.0,24.0,1.0,767.0,1,-0.21724306188511713,-1.0657521189375805
412,Pilot,d09302021,mRuyP,memory_test,28.0,1.0,0.0,47.0,25.0,1.0,1267.0,,0.0,887.0,0,-1.0243030010113099,-0.8212625817464775
413,Pilot,d09302021,mRuyP,memory_test,29.0,0.0,0.0,9.0,19.0,1.0,1467.0,,0.0,862.0,0,-0.5214619174435886,-0.8721979019946239
414,Pilot,d09302021,mRuyP,memory_test,30.0,0.0,0.0,53.0,51.0,1.0,2267.0,,0.0,2039.0,0,1.489902416827297,1.525836975288111
415,Pilot,d09302021,mRuyP,memory_test,31.0,1.0,0.0,52.0,2.0,1.0,1582.0,,1.0,597.0,0,-0.23232829439214878,-1.4121122966249762
416,Pilot,d09302021,QqVXN,memory_test,0.0,0.0,0.0,3.0,50.0,0.0,3660.0,,,,1,0.12599225895946983,
417,Pilot,d09302021,QqVXN,memory_test,1.0,1.0,1.0,32.0,0.0,0.0,1869.0,32.0,,,0,-0.1123044985312943,
418,Pilot,d09302021,QqVXN,memory_test,2.0,0.0,1.0,37.0,11.0,0.0,1638.0,37.0,,,0,-0.14303959120598247,
419,Pilot,d09302021,QqVXN,memory_test,3.0,1.0,1.0,18.0,7.0,0.0,1463.0,7.0,,,0,-0.16632375232317048,
420,Pilot,d09302021,QqVXN,memory_test,4.0,1.0,1.0,58.0,36.0,0.0,1080.0,58.0,,,0,-0.21728280208250195,
421,Pilot,d09302021,QqVXN,memory_test,5.0,1.0,0.0,33.0,56.0,0.0,1034.0,,,,1,-0.22340321014759137,
422,Pilot,d09302021,QqVXN,memory_test,6.0,0.0,0.0,52.0,11.0,0.0,877.0,,,,1,-0.24429242897844003,
423,Pilot,d09302021,QqVXN,memory_test,7.0,1.0,0.0,24.0,32.0,0.0,1428.0,,,,1,-0.17098058454660808,
424,Pilot,d09302021,QqVXN,memory_test,8.0,0.0,0.0,37.0,45.0,0.0,689.0,,,,1,-0.269306270635762,
425,Pilot,d09302021,QqVXN,memory_test,9.0,0.0,0.0,1.0,10.0,0.0,365.0,,,,1,-0.3124152317898701,
426,Pilot,d09302021,QqVXN,memory_test,10.0,0.0,1.0,45.0,1.0,0.0,932.0,1.0,,,0,-0.23697454977018095,
427,Pilot,d09302021,QqVXN,memory_test,11.0,1.0,1.0,23.0,22.0,0.0,1509.0,23.0,,,0,-0.16020334425808105,
428,Pilot,d09302021,QqVXN,memory_test,12.0,1.0,1.0,12.0,42.0,0.0,975.0,12.0,,,0,-0.23125329875281475,
429,Pilot,d09302021,QqVXN,memory_test,13.0,1.0,0.0,12.0,0.0,0.0,536.0,,,,1,-0.28966328006964637,
430,Pilot,d09302021,QqVXN,memory_test,14.0,1.0,0.0,7.0,22.0,0.0,2125.0,,,,1,-0.07824309712557928,
431,Pilot,d09302021,QqVXN,memory_test,15.0,0.0,1.0,3.0,47.0,0.0,2353.0,47.0,,,0,-0.04790716149861433,
432,Pilot,d09302021,QqVXN,memory_test,16.0,0.0,0.0,16.0,54.0,0.0,2500.0,,,,1,-0.0283484661601764,
433,Pilot,d09302021,QqVXN,memory_test,17.0,0.0,1.0,41.0,50.0,0.0,1705.0,50.0,,,0,-0.1341250838068305,
434,Pilot,d09302021,QqVXN,memory_test,18.0,1.0,1.0,28.0,33.0,0.0,2568.0,33.0,,,0,-0.019300906411783347,
435,Pilot,d09302021,QqVXN,memory_test,19.0,0.0,1.0,16.0,40.0,0.0,43565.0,40.0,,,0,5.435446255424541,
436,Pilot,d09302021,QqVXN,memory_test,20.0,1.0,1.0,5.0,24.0,0.0,806.0,5.0,,,0,-0.2537391457745563,
437,Pilot,d09302021,QqVXN,memory_test,21.0,1.0,0.0,28.0,23.0,0.0,570.0,,,,1,-0.28513950019544987,
438,Pilot,d09302021,QqVXN,memory_test,22.0,0.0,0.0,6.0,47.0,0.0,611.0,,,,1,-0.2796843538765658,
439,Pilot,d09302021,QqVXN,memory_test,23.0,0.0,0.0,46.0,26.0,0.0,1010.0,,,,1,-0.22659646652937715,
440,Pilot,d09302021,QqVXN,memory_test,24.0,0.0,1.0,26.0,6.0,0.0,594.0,26.0,,,0,-0.28194624381366407,
441,Pilot,d09302021,QqVXN,memory_test,25.0,0.0,0.0,40.0,41.0,0.0,4611.0,,,,1,0.2525250430877315,
442,Pilot,d09302021,QqVXN,memory_test,26.0,0.0,1.0,10.0,54.0,0.0,1726.0,54.0,,,0,-0.13133098447276792,
443,Pilot,d09302021,QqVXN,memory_test,27.0,1.0,0.0,58.0,42.0,0.0,747.0,,,,1,-0.2615892343797797,
444,Pilot,d09302021,QqVXN,memory_test,28.0,1.0,1.0,56.0,31.0,0.0,486.0,31.0,,,0,-0.2963158975317001,
445,Pilot,d09302021,QqVXN,memory_test,29.0,1.0,0.0,36.0,31.0,0.0,607.0,,,,1,-0.2802165632735301,
446,Pilot,d09302021,QqVXN,memory_test,30.0,0.0,1.0,46.0,52.0,0.0,1684.0,52.0,,,0,-0.13691918314089305,
447,Pilot,d09302021,QqVXN,memory_test,31.0,1.0,0.0,18.0,5.0,0.0,495.0,,,,1,-0.2951184263885304,
448,Pilot,d10012021,iisGS,memory_test,0.0,1.0,0.0,29.0,4.0,0.0,3011.0,,,,1,0.4566005411161803,
449,Pilot,d10012021,iisGS,memory_test,1.0,1.0,1.0,40.0,49.0,0.0,1588.0,49.0,,,0,-0.24033782379068078,
450,Pilot,d10012021,iisGS,memory_test,2.0,1.0,1.0,44.0,6.0,0.0,1553.0,6.0,,,0,-0.25747966691909974,
451,Pilot,d10012021,iisGS,memory_test,3.0,0.0,0.0,17.0,12.0,1.0,1505.0,,0.0,2343.0,0,-0.28098848035235996,-0.18364293699382508
452,Pilot,d10012021,iisGS,memory_test,4.0,1.0,1.0,4.0,11.0,0.0,1606.0,11.0,,,0,-0.2315220187532082,
453,Pilot,d10012021,iisGS,memory_test,5.0,0.0,0.0,5.0,37.0,1.0,1306.0,,1.0,1654.0,0,-0.37845210271108476,-0.30123585854470375
454,Pilot,d10012021,iisGS,memory_test,6.0,1.0,1.0,51.0,43.0,0.0,1787.0,43.0,,,0,-0.142874201431956,
455,Pilot,d10012021,iisGS,memory_test,7.0,0.0,1.0,34.0,37.0,1.0,1516.0,34.0,1.0,1405.0,1,-0.27560104394057117,-0.3437331553025685
456,Pilot,d10012021,iisGS,memory_test,8.0,0.0,0.0,39.0,16.0,0.0,1286.0,,,,1,-0.38824744164160985,
457,Pilot,d10012021,iisGS,memory_test,9.0,1.0,0.0,11.0,40.0,1.0,1746.0,,1.0,2894.0,0,-0.16295464623953246,-0.08960273412802804
458,Pilot,d10012021,iisGS,memory_test,10.0,0.0,1.0,17.0,36.0,0.0,943.0,36.0,,,0,-0.5562375043001154,
459,Pilot,d10012021,iisGS,memory_test,11.0,1.0,0.0,27.0,51.0,0.0,2175.0,,,,1,0.04715537382023101,
460,Pilot,d10012021,iisGS,memory_test,12.0,0.0,1.0,57.0,12.0,1.0,2300.0,12.0,0.0,2551.0,1,0.1083762421360129,-0.148143187091673
461,Pilot,d10012021,iisGS,memory_test,13.0,1.0,0.0,13.0,35.0,0.0,1029.0,,,,1,-0.5141175468988575,
462,Pilot,d10012021,iisGS,memory_test,14.0,0.0,0.0,57.0,54.0,0.0,1486.0,,,,1,-0.2902940523363588,
463,Pilot,d10012021,iisGS,memory_test,15.0,0.0,1.0,16.0,5.0,0.0,1753.0,5.0,,,0,-0.1595262776138487,
464,Pilot,d10012021,iisGS,memory_test,16.0,0.0,0.0,34.0,30.0,1.0,1519.0,,1.0,20950.0,0,-0.27413174310099236,2.992048632378018
465,Pilot,d10012021,iisGS,memory_test,17.0,1.0,1.0,48.0,27.0,0.0,3194.0,27.0,,,0,0.5462278923304851,
466,Pilot,d10012021,iisGS,memory_test,18.0,0.0,0.0,36.0,45.0,0.0,2345.0,,,,1,0.13041575472969438,
467,Pilot,d10012021,iisGS,memory_test,19.0,0.0,1.0,45.0,25.0,0.0,8532.0,25.0,,,0,3.1606038528876352,
468,Pilot,d10012021,iisGS,memory_test,20.0,1.0,0.0,32.0,6.0,0.0,10463.0,,,,1,4.106343826629834,
469,Pilot,d10012021,iisGS,memory_test,21.0,0.0,0.0,8.0,42.0,0.0,1000.0,,,,1,-0.5283207883481188,
470,Pilot,d10012021,iisGS,memory_test,22.0,1.0,1.0,13.0,53.0,1.0,905.0,13.0,1.0,1132.0,1,-0.5748486482681131,-0.3903265770491431
471,Pilot,d10012021,iisGS,memory_test,23.0,1.0,0.0,53.0,43.0,0.0,1466.0,,,,1,-0.3000893912668839,
472,Pilot,d10012021,iisGS,memory_test,24.0,0.0,0.0,20.0,25.0,0.0,1123.0,,,,1,-0.46807945392538947,
473,Pilot,d10012021,iisGS,memory_test,25.0,0.0,1.0,39.0,8.0,1.0,990.0,39.0,1.0,1946.0,1,-0.5332184578133814,-0.25139967118206724
474,Pilot,d10012021,iisGS,memory_test,26.0,1.0,1.0,29.0,35.0,1.0,2294.0,29.0,1.0,615.0,1,0.10543764045685537,-0.4785639361809345
475,Pilot,d10012021,iisGS,memory_test,27.0,1.0,1.0,32.0,26.0,0.0,1136.0,26.0,,,0,-0.4617124836205481,
476,Pilot,d10012021,iisGS,memory_test,28.0,0.0,1.0,42.0,20.0,0.0,775.0,42.0,,,0,-0.6385183513165262,
477,Pilot,d10012021,iisGS,memory_test,29.0,1.0,0.0,48.0,26.0,1.0,1307.0,,0.0,1384.0,0,-0.3779623357645585,-0.34731726466768964
478,Pilot,d10012021,iisGS,memory_test,30.0,0.0,1.0,54.0,30.0,1.0,1338.0,54.0,1.0,735.0,1,-0.3627795604222446,-0.4580833112373852
479,Pilot,d10012021,iisGS,memory_test,31.0,1.0,0.0,44.0,49.0,0.0,1542.0,,,,1,-0.26286710333088853,
480,Pilot,d09302021,BGa6g,memory_test,0.0,1.0,0.0,1.0,43.0,1.0,1029.0,,0.0,3554.0,0,-1.0888461401580904,2.8728403383039876
481,Pilot,d09302021,BGa6g,memory_test,1.0,1.0,1.0,1.0,17.0,0.0,1268.0,17.0,,,0,-0.4266198753525974,
482,Pilot,d09302021,BGa6g,memory_test,2.0,1.0,0.0,12.0,53.0,1.0,1028.0,,0.0,1223.0,0,-1.0916169613497453,0.06824658520227014
483,Pilot,d09302021,BGa6g,memory_test,3.0,0.0,0.0,46.0,26.0,1.0,927.0,,0.0,564.0,0,-1.3714699017068783,-0.7246437122211669
484,Pilot,d09302021,BGa6g,memory_test,4.0,1.0,1.0,32.0,12.0,1.0,1227.0,12.0,0.0,525.0,1,-0.5402235442104435,-0.7715674172280167
485,Pilot,d09302021,BGa6g,memory_test,5.0,0.0,0.0,57.0,27.0,0.0,1446.0,,,,1,0.066586296761954,
486,Pilot,d09302021,BGa6g,memory_test,6.0,1.0,0.0,18.0,17.0,0.0,1398.0,,,,1,-0.06641312043747558,
487,Pilot,d09302021,BGa6g,memory_test,7.0,0.0,0.0,45.0,6.0,0.0,1458.0,,,,1,0.0998361510618114,
488,Pilot,d09302021,BGa6g,memory_test,8.0,0.0,1.0,27.0,50.0,1.0,1054.0,27.0,1.0,1777.0,1,-1.0195756103667208,0.7348038306841884
489,Pilot,d09302021,BGa6g,memory_test,9.0,1.0,1.0,39.0,52.0,0.0,1334.0,39.0,,,0,-0.24374567670338168,
490,Pilot,d09302021,BGa6g,memory_test,10.0,0.0,1.0,55.0,57.0,1.0,1242.0,55.0,1.0,2233.0,1,-0.4986612263356217,1.2834502276873558
491,Pilot,d09302021,BGa6g,memory_test,11.0,1.0,1.0,53.0,4.0,1.0,1439.0,4.0,1.0,1967.0,1,0.04719054842037052,0.9634064961021748
492,Pilot,d09302021,BGa6g,memory_test,12.0,0.0,1.0,44.0,16.0,1.0,1231.0,44.0,1.0,961.0,1,-0.5291402594438244,-0.24698445868990057
493,Pilot,d09302021,BGa6g,memory_test,13.0,0.0,1.0,51.0,24.0,0.0,1219.0,51.0,,,0,-0.5623901137436818,
494,Pilot,d09302021,BGa6g,memory_test,14.0,0.0,0.0,16.0,40.0,1.0,1833.0,,0.0,462.0,0,1.138894097932355,-0.847367248392928
495,Pilot,d09302021,BGa6g,memory_test,15.0,0.0,0.0,44.0,50.0,1.0,2432.0,,1.0,1371.0,0,2.79861599173357,0.24631602984364903
496,Pilot,d09302021,BGa6g,memory_test,16.0,0.0,1.0,29.0,45.0,1.0,1724.0,45.0,0.0,1418.0,1,0.8368745880419837,0.30286511023651935
497,Pilot,d09302021,BGa6g,memory_test,17.0,1.0,1.0,22.0,7.0,1.0,1273.0,22.0,1.0,432.0,1,-0.4127657693943234,-0.8834624060905049
498,Pilot,d09302021,BGa6g,memory_test,18.0,1.0,0.0,4.0,48.0,0.0,968.0,,,,1,-1.2578662328490322,
499,Pilot,d09302021,BGa6g,memory_test,19.0,1.0,1.0,34.0,18.0,0.0,1614.0,34.0,,,0,0.5320842569599575,
500,Pilot,d09302021,BGa6g,memory_test,20.0,0.0,0.0,33.0,29.0,0.0,1330.0,,,,1,-0.25482896147000084,
501,Pilot,d09302021,BGa6g,memory_test,21.0,1.0,1.0,58.0,8.0,0.0,1313.0,58.0,,,0,-0.30193292172813213,
502,Pilot,d09302021,BGa6g,memory_test,22.0,0.0,0.0,55.0,24.0,1.0,1490.0,,1.0,509.0,0,0.18850242919476445,-0.7908181680000577
503,Pilot,d09302021,BGa6g,memory_test,23.0,1.0,0.0,34.0,7.0,1.0,1133.0,,1.0,450.0,0,-0.800680736225993,-0.8618053114719587
504,Pilot,d09302021,BGa6g,memory_test,24.0,1.0,1.0,43.0,48.0,1.0,1638.0,43.0,1.0,586.0,1,0.5985839655596723,-0.6981739299096106
505,Pilot,d09302021,BGa6g,memory_test,25.0,1.0,0.0,32.0,58.0,0.0,1031.0,,,,1,-1.083304497774781,
506,Pilot,d09302021,BGa6g,memory_test,26.0,0.0,1.0,33.0,46.0,0.0,1388.0,33.0,,,0,-0.09412133235402341,
507,Pilot,d09302021,BGa6g,memory_test,27.0,0.0,0.0,37.0,51.0,1.0,1559.0,,0.0,1452.0,0,0.37968909141894447,0.3437729556271064
508,Pilot,d09302021,BGa6g,memory_test,28.0,1.0,0.0,52.0,22.0,1.0,1375.0,,0.0,417.0,0,-0.1301420078455356,-0.9015099849392932
509,Pilot,d09302021,BGa6g,memory_test,29.0,0.0,1.0,26.0,37.0,0.0,1942.0,26.0,,,0,1.4409136078227263,
510,Pilot,d09302021,BGa6g,memory_test,30.0,1.0,0.0,39.0,8.0,0.0,1803.0,,,,1,1.0557694621827114,
511,Pilot,d09302021,BGa6g,memory_test,31.0,0.0,1.0,40.0,6.0,1.0,2357.0,40.0,1.0,1092.0,1,2.590804402359461,-0.08936893674381521
512,Pilot,d09302021,wTZ07,memory_test,0.0,0.0,0.0,26.0,25.0,0.0,6183.0,,,,1,3.7189440256605417,
513,Pilot,d09302021,wTZ07,memory_test,1.0,1.0,0.0,51.0,28.0,0.0,3924.0,,,,1,1.6252785189243868,
514,Pilot,d09302021,wTZ07,memory_test,2.0,1.0,1.0,51.0,56.0,0.0,3035.0,56.0,,,0,0.8013437533252536,
515,Pilot,d09302021,wTZ07,memory_test,3.0,0.0,0.0,1.0,30.0,0.0,2283.0,,,,1,0.10438206183982268,
516,Pilot,d09302021,wTZ07,memory_test,4.0,1.0,0.0,55.0,45.0,0.0,1949.0,,,,1,-0.2051727319848235,
517,Pilot,d09302021,wTZ07,memory_test,5.0,0.0,0.0,42.0,24.0,1.0,1668.0,,1.0,2489.0,0,-0.46560655553190605,2.812749300464779
518,Pilot,d09302021,wTZ07,memory_test,6.0,1.0,0.0,27.0,22.0,1.0,1488.0,,0.0,1703.0,0,-0.6324324923236315,1.2108212154236107
519,Pilot,d09302021,wTZ07,memory_test,7.0,0.0,0.0,17.0,40.0,1.0,2047.0,,1.0,1955.0,0,-0.11434527750932852,1.7244164793299395
520,Pilot,d09302021,wTZ07,memory_test,8.0,0.0,1.0,42.0,26.0,0.0,3059.0,42.0,,,0,0.8235872115641504,
521,Pilot,d09302021,wTZ07,memory_test,9.0,0.0,1.0,29.0,1.0,1.0,1547.0,1.0,0.0,1388.0,1,-0.5777506574863438,0.5688271355406996
522,Pilot,d09302021,wTZ07,memory_test,10.0,0.0,1.0,58.0,14.0,1.0,1843.0,58.0,1.0,686.0,1,-0.30341467253995075,-0.8619025281983591
523,Pilot,d09302021,wTZ07,memory_test,11.0,0.0,0.0,29.0,43.0,0.0,2835.0,,,,1,0.6159816013344476,
524,Pilot,d09302021,wTZ07,memory_test,12.0,0.0,0.0,14.0,9.0,1.0,2952.0,,0.0,1492.0,0,0.7244184602490691,0.7807870857242639
525,Pilot,d09302021,wTZ07,memory_test,13.0,1.0,1.0,55.0,27.0,1.0,2400.0,55.0,1.0,785.0,1,0.21281892075444425,-0.6601329602351584
526,Pilot,d09302021,wTZ07,memory_test,14.0,1.0,0.0,2.0,56.0,0.0,1710.0,,,,1,-0.4266805036138368,
527,Pilot,d09302021,wTZ07,memory_test,15.0,0.0,1.0,43.0,24.0,1.0,1167.0,43.0,1.0,968.0,1,-0.9299387462688754,-0.2871649709698483
528,Pilot,d09302021,wTZ07,memory_test,16.0,1.0,1.0,28.0,59.0,1.0,1329.0,28.0,1.0,357.0,1,-0.7797954031563225,-1.5324296782982882
529,Pilot,d09302021,wTZ07,memory_test,17.0,1.0,1.0,18.0,22.0,1.0,1063.0,22.0,0.0,1164.0,1,-1.0263270653040946,0.11229801206840742
530,Pilot,d09302021,wTZ07,memory_test,18.0,0.0,1.0,25.0,48.0,1.0,875.0,25.0,1.0,905.0,1,-1.2005674881754522,-0.4155637869464305
531,Pilot,d09302021,wTZ07,memory_test,19.0,0.0,1.0,9.0,10.0,1.0,1500.0,9.0,1.0,877.0,1,-0.6213107632041832,-0.472629927380467
532,Pilot,d09302021,wTZ07,memory_test,20.0,1.0,1.0,2.0,39.0,1.0,1228.0,39.0,0.0,1108.0,1,-0.8734032899116795,-0.0018342687996656453
533,Pilot,d09302021,wTZ07,memory_test,21.0,1.0,0.0,39.0,18.0,0.0,3834.0,,,,1,1.541865550528524,
534,Pilot,d09302021,wTZ07,memory_test,22.0,1.0,1.0,36.0,7.0,1.0,1240.0,7.0,0.0,880.0,1,-0.8622815607922312,-0.46651569804824883
535,Pilot,d09302021,wTZ07,memory_test,23.0,1.0,0.0,59.0,7.0,0.0,3464.0,,,,1,1.1989455693455326,
536,Pilot,d09302021,wTZ07,memory_test,24.0,0.0,0.0,58.0,48.0,1.0,1585.0,,1.0,822.0,0,-0.5425318486080906,-0.5847241318044674
537,Pilot,d09302021,wTZ07,memory_test,25.0,0.0,0.0,10.0,52.0,1.0,1460.0,,0.0,1113.0,0,-0.6583831936023444,0.008356113420698022
538,Pilot,d09302021,wTZ07,memory_test,26.0,0.0,1.0,17.0,30.0,1.0,1457.0,17.0,1.0,982.0,1,-0.6611636258822066,-0.25863190075283005
539,Pilot,d09302021,wTZ07,memory_test,27.0,0.0,1.0,40.0,52.0,1.0,2078.0,52.0,0.0,720.0,1,-0.08561414395075356,-0.7926079290998861
540,Pilot,d09302021,wTZ07,memory_test,28.0,1.0,1.0,15.0,45.0,0.0,2084.0,15.0,,,0,-0.08005327939102938,
541,Pilot,d09302021,wTZ07,memory_test,29.0,1.0,0.0,15.0,35.0,1.0,2010.0,,1.0,971.0,0,-0.14863727562762763,-0.2810507416376301
542,Pilot,d09302021,wTZ07,memory_test,30.0,1.0,0.0,13.0,36.0,1.0,1866.0,,1.0,813.0,0,-0.282098025061008,-0.603066819801122
543,Pilot,d09302021,wTZ07,memory_test,31.0,1.0,1.0,13.0,35.0,0.0,2289.0,13.0,,,0,0.10994292639954686,
544,Pilot,d09302021,OxAiv,memory_test,0.0,0.0,0.0,32.0,46.0,1.0,2358.0,,1.0,3987.0,0,-0.46479448540969137,2.385491325567871
545,Pilot,d09302021,OxAiv,memory_test,1.0,0.0,1.0,32.0,55.0,0.0,1176.0,32.0,,,0,-0.8301391781806009,
546,Pilot,d09302021,OxAiv,memory_test,2.0,1.0,1.0,16.0,37.0,1.0,7850.0,37.0,0.0,1457.0,1,1.232729247837208,-0.17359832458815322
547,Pilot,d09302021,OxAiv,memory_test,3.0,0.0,1.0,15.0,46.0,0.0,2619.0,15.0,,,0,-0.3841219263460641,
548,Pilot,d09302021,OxAiv,memory_test,4.0,1.0,0.0,16.0,44.0,0.0,1135.0,,,,1,-0.8428118790296764,
549,Pilot,d09302021,OxAiv,memory_test,5.0,1.0,1.0,44.0,23.0,0.0,2121.0,44.0,,,0,-0.5380488781226402,
550,Pilot,d09302021,OxAiv,memory_test,6.0,0.0,0.0,18.0,50.0,0.0,1504.0,,,,1,-0.7287575713879966,
551,Pilot,d09302021,OxAiv,memory_test,7.0,0.0,1.0,42.0,31.0,0.0,3784.0,31.0,,,0,-0.024031768073551788,
552,Pilot,d09302021,OxAiv,memory_test,8.0,1.0,1.0,34.0,27.0,0.0,3585.0,27.0,,,0,-0.08554073073125991,
553,Pilot,d09302021,OxAiv,memory_test,9.0,0.0,0.0,55.0,1.0,0.0,1413.0,,,,1,-0.756884785467652,
554,Pilot,d09302021,OxAiv,memory_test,10.0,1.0,1.0,12.0,10.0,0.0,4118.0,12.0,,,0,0.07920438030672214,
555,Pilot,d09302021,OxAiv,memory_test,11.0,1.0,1.0,19.0,26.0,0.0,15650.0,19.0,,,0,3.643633311807677,
556,Pilot,d09302021,OxAiv,memory_test,12.0,0.0,1.0,52.0,58.0,1.0,7348.0,52.0,1.0,1610.0,1,1.0775659350021856,-0.018839148116267173
557,Pilot,d09302021,OxAiv,memory_test,13.0,0.0,1.0,1.0,17.0,0.0,8065.0,1.0,,,0,1.2991836547287017,
558,Pilot,d09302021,OxAiv,memory_test,14.0,1.0,0.0,37.0,8.0,1.0,3472.0,,1.0,1578.0,0,-0.12046793063237055,-0.05120708045025641
559,Pilot,d09302021,OxAiv,memory_test,15.0,0.0,1.0,50.0,39.0,1.0,5529.0,50.0,1.0,1122.0,1,0.5153307436736877,-0.512450116209603
560,Pilot,d09302021,OxAiv,memory_test,16.0,1.0,1.0,36.0,24.0,0.0,3480.0,24.0,,,0,-0.11799520851547775,
561,Pilot,d09302021,OxAiv,memory_test,17.0,1.0,0.0,45.0,24.0,0.0,2535.0,,,,1,-0.4100855085734384,
562,Pilot,d09302021,OxAiv,memory_test,18.0,0.0,1.0,18.0,7.0,1.0,2693.0,7.0,0.0,1002.0,1,-0.36124924676480585,-0.6338298624620627
563,Pilot,d09302021,OxAiv,memory_test,19.0,1.0,1.0,40.0,8.0,0.0,2231.0,40.0,,,0,-0.5040489490153643,
564,Pilot,d09302021,OxAiv,memory_test,20.0,1.0,1.0,33.0,45.0,0.0,1172.0,33.0,,,0,-0.8313755392390473,
565,Pilot,d09302021,OxAiv,memory_test,21.0,0.0,0.0,49.0,7.0,0.0,1819.0,,,,1,-0.6313941380353429,
566,Pilot,d09302021,OxAiv,memory_test,22.0,1.0,0.0,27.0,23.0,0.0,2185.0,,,,1,-0.5182671011874979,
567,Pilot,d09302021,OxAiv,memory_test,23.0,1.0,0.0,34.0,19.0,1.0,5599.0,,0.0,1375.0,0,0.5369670621964996,-0.2565411511940006
568,Pilot,d09302021,OxAiv,memory_test,24.0,1.0,0.0,12.0,36.0,0.0,1506.0,,,,1,-0.7281393908587733,
569,Pilot,d09302021,OxAiv,memory_test,25.0,0.0,0.0,31.0,39.0,0.0,1055.0,,,,1,-0.8675391001986043,
570,Pilot,d09302021,OxAiv,memory_test,26.0,0.0,1.0,29.0,49.0,1.0,7876.0,29.0,1.0,898.0,1,1.2407655947171095,-0.7390256425475277
571,Pilot,d09302021,OxAiv,memory_test,27.0,0.0,0.0,29.0,58.0,0.0,1319.0,,,,1,-0.7859392703411423,
572,Pilot,d09302021,OxAiv,memory_test,28.0,0.0,0.0,42.0,15.0,0.0,10152.0,,,,1,1.944255036973108,
573,Pilot,d09302021,OxAiv,memory_test,29.0,1.0,0.0,33.0,26.0,0.0,2119.0,,,,1,-0.5386670586518634,
574,Pilot,d09302021,OxAiv,memory_test,30.0,1.0,0.0,10.0,40.0,0.0,2512.0,,,,1,-0.41719458465950515,
575,Pilot,d09302021,OxAiv,memory_test,31.0,0.0,0.0,52.0,17.0,0.0,3596.0,,,,1,-0.08214073782053231,
576,Pilot,d10012021,xlr2G,memory_test,0.0,0.0,1.0,49.0,32.0,1.0,5545.0,32.0,0.0,1881.0,1,4.186934396992462,1.4020034400208539
577,Pilot,d10012021,xlr2G,memory_test,1.0,0.0,1.0,14.0,10.0,0.0,3931.0,10.0,,,0,2.5257976038148104,
578,Pilot,d10012021,xlr2G,memory_test,2.0,1.0,0.0,22.0,44.0,1.0,2263.0,,1.0,3487.0,0,0.8090837432074234,3.252901528531739
579,Pilot,d10012021,xlr2G,memory_test,3.0,0.0,0.0,23.0,47.0,0.0,1662.0,,,,1,0.1905315668135147,
580,Pilot,d10012021,xlr2G,memory_test,4.0,1.0,1.0,43.0,5.0,1.0,1360.0,43.0,1.0,979.0,1,-0.12028832881204339,0.36245793825446654
581,Pilot,d10012021,xlr2G,memory_test,5.0,0.0,1.0,33.0,56.0,1.0,1274.0,33.0,1.0,311.0,1,-0.20879995471865928,-0.40740502757696
582,Pilot,d10012021,xlr2G,memory_test,6.0,0.0,1.0,47.0,27.0,1.0,962.0,47.0,1.0,305.0,1,-0.5299118998682425,-0.4143199643958052
583,Pilot,d10012021,xlr2G,memory_test,7.0,1.0,0.0,40.0,43.0,0.0,1283.0,,,,1,-0.19953711014703668,
584,Pilot,d10012021,xlr2G,memory_test,8.0,0.0,1.0,59.0,21.0,0.0,2327.0,21.0,,,0,0.8749528601611841,
585,Pilot,d10012021,xlr2G,memory_test,9.0,1.0,0.0,26.0,18.0,0.0,1413.0,,,,1,-0.06574046633471034,
586,Pilot,d10012021,xlr2G,memory_test,10.0,1.0,1.0,9.0,29.0,1.0,850.0,9.0,1.0,434.0,1,-0.6451828545373236,-0.26564882279063445
587,Pilot,d10012021,xlr2G,memory_test,11.0,1.0,0.0,51.0,34.0,1.0,1290.0,,1.0,258.0,0,-0.19233267548021912,-0.46848696947675883
588,Pilot,d10012021,xlr2G,memory_test,12.0,0.0,0.0,14.0,32.0,1.0,1619.0,,1.0,304.0,0,0.14627575386020678,-0.4154724538656127
589,Pilot,d10012021,xlr2G,memory_test,13.0,0.0,1.0,12.0,31.0,0.0,983.0,31.0,,,0,-0.5082985958677898,
590,Pilot,d10012021,xlr2G,memory_test,14.0,1.0,0.0,5.0,52.0,0.0,969.0,,,,1,-0.522707465201425,
591,Pilot,d10012021,xlr2G,memory_test,15.0,0.0,0.0,31.0,49.0,1.0,1193.0,,0.0,281.0,0,-0.2921655558632626,-0.44197971167118577
592,Pilot,d10012021,xlr2G,memory_test,16.0,1.0,0.0,29.0,38.0,1.0,1509.0,,0.0,350.0,0,0.03306320909593064,-0.36245793825446654
593,Pilot,d10012021,xlr2G,memory_test,17.0,0.0,1.0,53.0,1.0,0.0,1621.0,1.0,,,0,0.1483341637650118,
594,Pilot,d10012021,xlr2G,memory_test,18.0,1.0,1.0,34.0,52.0,1.0,989.0,52.0,1.0,394.0,1,-0.5021233661533747,-0.3117484015829355
595,Pilot,d10012021,xlr2G,memory_test,19.0,1.0,1.0,11.0,22.0,0.0,1009.0,22.0,,,0,-0.4815392671053245,
596,Pilot,d10012021,xlr2G,memory_test,20.0,1.0,1.0,26.0,44.0,1.0,511.0,26.0,1.0,774.0,1,-0.9940833334017747,0.12619759694392396
597,Pilot,d10012021,xlr2G,memory_test,21.0,0.0,0.0,10.0,27.0,0.0,376.0,,,,1,-1.1330260019761136,
598,Pilot,d10012021,xlr2G,memory_test,22.0,0.0,0.0,56.0,21.0,0.0,992.0,,,,1,-0.4990357512961672,
599,Pilot,d10012021,xlr2G,memory_test,23.0,1.0,1.0,51.0,25.0,1.0,1012.0,51.0,1.0,305.0,1,-0.478451652248117,-0.4143199643958052
600,Pilot,d10012021,xlr2G,memory_test,24.0,0.0,1.0,30.0,23.0,1.0,1895.0,30.0,1.0,165.0,1,0.43033632072329964,-0.5756684901688587
601,Pilot,d10012021,xlr2G,memory_test,25.0,0.0,0.0,59.0,1.0,0.0,979.0,,,,1,-0.5124154156773998,
602,Pilot,d10012021,xlr2G,memory_test,26.0,1.0,0.0,42.0,25.0,0.0,1077.0,,,,1,-0.4115533303419538,
603,Pilot,d10012021,xlr2G,memory_test,27.0,1.0,0.0,11.0,9.0,0.0,1195.0,,,,1,-0.2901071459584576,
604,Pilot,d10012021,xlr2G,memory_test,28.0,0.0,0.0,30.0,53.0,0.0,1470.0,,,,1,-0.007075784047767259,
605,Pilot,d10012021,xlr2G,memory_test,29.0,0.0,0.0,33.0,12.0,1.0,1176.0,,1.0,140.0,0,-0.3096620400541053,-0.6044807269140468
606,Pilot,d10012021,xlr2G,memory_test,30.0,1.0,1.0,42.0,18.0,1.0,1321.0,42.0,1.0,264.0,1,-0.1604273219557413,-0.4615720326579137
607,Pilot,d10012021,xlr2G,memory_test,31.0,1.0,1.0,38.0,40.0,0.0,1204.0,38.0,,,0,-0.280844301386835,
608,Pilot,d10012021,RMj9m,memory_test,0.0,0.0,1.0,55.0,31.0,1.0,4996.0,55.0,1.0,2863.0,1,4.094175662723436,4.034081027000264
609,Pilot,d10012021,RMj9m,memory_test,1.0,1.0,0.0,41.0,42.0,0.0,2792.0,,,,1,1.302825381991861,
610,Pilot,d10012021,RMj9m,memory_test,2.0,0.0,0.0,23.0,15.0,1.0,2179.0,,1.0,419.0,0,0.5264652540025437,-0.07558489492243256
611,Pilot,d10012021,RMj9m,memory_test,3.0,1.0,0.0,8.0,10.0,1.0,2032.0,,0.0,466.0,0,0.3402908024292491,0.003447142037619302
612,Pilot,d10012021,RMj9m,memory_test,4.0,0.0,1.0,59.0,33.0,1.0,2511.0,33.0,0.0,647.0,1,0.9469408861272637,0.3078045609688828
613,Pilot,d10012021,RMj9m,memory_test,5.0,1.0,1.0,10.0,42.0,1.0,2309.0,10.0,1.0,727.0,1,0.6911093268224642,0.44232717707109875
614,Pilot,d10012021,RMj9m,memory_test,6.0,1.0,0.0,2.0,14.0,1.0,2009.0,,1.0,359.0,0,0.3111614664688016,-0.1764768569990945
615,Pilot,d10012021,RMj9m,memory_test,7.0,1.0,0.0,38.0,24.0,1.0,1490.0,,1.0,249.0,0,-0.34614833194303474,-0.3614454541396414
616,Pilot,d10012021,RMj9m,memory_test,8.0,0.0,1.0,58.0,13.0,1.0,2100.0,58.0,1.0,256.0,1,0.42641231744274594,-0.3496747252306975
617,Pilot,d10012021,RMj9m,memory_test,9.0,1.0,0.0,54.0,28.0,1.0,2363.0,,0.0,322.0,0,0.7594999416861234,-0.23869356694636937
618,Pilot,d10012021,RMj9m,memory_test,10.0,1.0,0.0,29.0,32.0,1.0,1941.0,,1.0,235.0,0,0.22503995145530475,-0.38498691195752915
619,Pilot,d10012021,RMj9m,memory_test,11.0,1.0,0.0,21.0,5.0,1.0,1251.0,,1.0,217.0,0,-0.6488401273581192,-0.41525450058052776
620,Pilot,d10012021,RMj9m,memory_test,12.0,1.0,1.0,24.0,54.0,0.0,1686.0,24.0,,,0,-0.09791572984530847,
621,Pilot,d10012021,RMj9m,memory_test,13.0,0.0,0.0,37.0,58.0,0.0,1018.0,,,,1,-0.9439329655661306,
622,Pilot,d10012021,RMj9m,memory_test,14.0,0.0,1.0,30.0,6.0,0.0,887.0,6.0,,,0,-1.1098435312538966,
623,Pilot,d10012021,RMj9m,memory_test,15.0,1.0,1.0,2.0,38.0,0.0,1087.0,2.0,,,0,-0.8565449576847881,
624,Pilot,d10012021,RMj9m,memory_test,16.0,0.0,0.0,6.0,59.0,0.0,1367.0,,,,1,-0.5019269546880364,
625,Pilot,d10012021,RMj9m,memory_test,17.0,0.0,0.0,20.0,33.0,1.0,1103.0,,0.0,363.0,0,-0.8362810717992595,-0.1697507261939837
626,Pilot,d10012021,RMj9m,memory_test,18.0,0.0,0.0,16.0,31.0,1.0,1995.0,,1.0,282.0,0,0.293430566318964,-0.3059548749974773
627,Pilot,d10012021,RMj9m,memory_test,19.0,0.0,1.0,20.0,35.0,1.0,1943.0,35.0,0.0,244.0,1,0.22757293719099583,-0.3698531176460299
628,Pilot,d10012021,RMj9m,memory_test,20.0,0.0,1.0,46.0,12.0,1.0,1898.0,12.0,0.0,752.0,1,0.17058075813794646,0.48436549460304124
629,Pilot,d10012021,RMj9m,memory_test,21.0,0.0,1.0,16.0,15.0,1.0,996.0,16.0,1.0,136.0,1,-0.9717958086587325,-0.5514586493840213
630,Pilot,d10012021,RMj9m,memory_test,22.0,1.0,1.0,14.0,21.0,1.0,1478.0,21.0,0.0,49.0,1,-0.3613462463571812,-0.6977519943951812
631,Pilot,d10012021,RMj9m,memory_test,23.0,1.0,0.0,27.0,57.0,0.0,1443.0,,,,1,-0.40567349673177516,
632,Pilot,d10012021,RMj9m,memory_test,24.0,1.0,1.0,41.0,5.0,0.0,982.0,41.0,,,0,-0.9895267088085701,
633,Pilot,d10012021,RMj9m,memory_test,25.0,0.0,1.0,23.0,37.0,0.0,1203.0,23.0,,,0,-0.7096317850147053,
634,Pilot,d10012021,RMj9m,memory_test,26.0,1.0,1.0,57.0,32.0,1.0,1340.0,57.0,1.0,191.0,1,-0.536122262119866,-0.45897435081374793
635,Pilot,d10012021,RMj9m,memory_test,27.0,0.0,0.0,35.0,46.0,1.0,2450.0,,1.0,305.0,0,0.8696848211886856,-0.26727962286809026
636,Pilot,d10012021,RMj9m,memory_test,28.0,0.0,0.0,30.0,55.0,1.0,1735.0,,0.0,197.0,0,-0.03585757932087691,-0.44888515460608175
637,Pilot,d10012021,RMj9m,memory_test,29.0,1.0,1.0,28.0,27.0,0.0,1710.0,28.0,,,0,-0.06751990101701547,
638,Pilot,d10012021,RMj9m,memory_test,30.0,1.0,1.0,29.0,8.0,0.0,1010.0,29.0,,,0,-0.9540649085088949,
639,Pilot,d10012021,RMj9m,memory_test,31.0,0.0,0.0,13.0,12.0,0.0,1122.0,,,,1,-0.8122177073101942,
640,Pilot,d10012021,uphHd,memory_test,0.0,1.0,1.0,0.0,46.0,0.0,3192.0,46.0,,,0,1.2421655984234408,
641,Pilot,d10012021,uphHd,memory_test,1.0,0.0,0.0,16.0,23.0,0.0,1508.0,,,,1,-0.3053507526999525,
642,Pilot,d10012021,uphHd,memory_test,2.0,0.0,0.0,39.0,33.0,1.0,1369.0,,0.0,4644.0,0,-0.43308517835681215,2.340064976265119
643,Pilot,d10012021,uphHd,memory_test,3.0,1.0,1.0,8.0,21.0,0.0,1359.0,21.0,,,0,-0.4422747053824855,
644,Pilot,d10012021,uphHd,memory_test,4.0,1.0,1.0,14.0,18.0,0.0,899.0,14.0,,,0,-0.8649929485634599,
645,Pilot,d10012021,uphHd,memory_test,5.0,0.0,1.0,31.0,16.0,1.0,2388.0,16.0,0.0,1342.0,1,0.5033276255593029,0.0007969946939029733
646,Pilot,d10012021,uphHd,memory_test,6.0,0.0,1.0,2.0,33.0,0.0,5247.0,33.0,,,0,3.1306134021993155,
647,Pilot,d10012021,uphHd,memory_test,7.0,1.0,1.0,27.0,40.0,0.0,4304.0,40.0,,,0,2.264041003678318,
648,Pilot,d10012021,uphHd,memory_test,8.0,0.0,1.0,59.0,37.0,1.0,4094.0,59.0,1.0,1653.0,1,2.0710609361391774,0.22112175007508048
649,Pilot,d10012021,uphHd,memory_test,9.0,1.0,0.0,0.0,43.0,0.0,1185.0,,,,1,-0.6021724756292018,
650,Pilot,d10012021,uphHd,memory_test,10.0,0.0,0.0,2.0,59.0,0.0,1038.0,,,,1,-0.7372585229066002,
651,Pilot,d10012021,uphHd,memory_test,11.0,0.0,0.0,31.0,24.0,1.0,2739.0,,0.0,357.0,0,0.8258800241604376,-0.6970161373011448
652,Pilot,d10012021,uphHd,memory_test,12.0,1.0,0.0,21.0,35.0,0.0,1800.0,,,,1,-0.03701656355029049,
653,Pilot,d10012021,uphHd,memory_test,13.0,1.0,1.0,5.0,57.0,0.0,1742.0,5.0,,,0,-0.09031582029919595,
654,Pilot,d10012021,uphHd,memory_test,14.0,0.0,0.0,19.0,53.0,0.0,950.0,,,,1,-0.8181263607325258,
655,Pilot,d10012021,uphHd,memory_test,15.0,0.0,0.0,51.0,44.0,0.0,1184.0,,,,1,-0.6030914283317692,
656,Pilot,d10012021,uphHd,memory_test,16.0,0.0,1.0,29.0,44.0,1.0,1291.0,29.0,1.0,509.0,1,-0.5047634891570643,-0.5893332986582541
657,Pilot,d10012021,uphHd,memory_test,17.0,0.0,1.0,19.0,23.0,0.0,1519.0,19.0,,,0,-0.2952422729717118,
658,Pilot,d10012021,uphHd,memory_test,18.0,1.0,1.0,7.0,36.0,0.0,3031.0,7.0,,,0,1.0942142133100996,
659,Pilot,d10012021,uphHd,memory_test,19.0,1.0,0.0,14.0,45.0,0.0,983.0,,,,1,-0.7878009215478037,
660,Pilot,d10012021,uphHd,memory_test,20.0,1.0,0.0,27.0,5.0,0.0,1040.0,,,,1,-0.7354206175014656,
661,Pilot,d10012021,uphHd,memory_test,21.0,1.0,0.0,18.0,40.0,0.0,1634.0,,,,1,-0.1895627121764682,
662,Pilot,d10012021,uphHd,memory_test,22.0,1.0,0.0,7.0,57.0,0.0,890.0,,,,1,-0.873263522886566,
663,Pilot,d10012021,uphHd,memory_test,23.0,1.0,1.0,45.0,43.0,0.0,642.0,43.0,,,0,-1.1011637931232652,
664,Pilot,d10012021,uphHd,memory_test,24.0,0.0,1.0,39.0,22.0,1.0,1472.0,22.0,0.0,486.0,1,-0.33843304999237656,-0.6056274124002705
665,Pilot,d10012021,uphHd,memory_test,25.0,0.0,1.0,51.0,53.0,1.0,1850.0,51.0,1.0,1093.0,1,0.008931071578076292,-0.17560449755662177
666,Pilot,d10012021,uphHd,memory_test,26.0,1.0,0.0,8.0,46.0,0.0,1438.0,,,,1,-0.369677441879666,
667,Pilot,d10012021,uphHd,memory_test,27.0,1.0,1.0,1.0,35.0,0.0,1160.0,1.0,,,0,-0.6251462931933853,
668,Pilot,d10012021,uphHd,memory_test,28.0,0.0,0.0,37.0,29.0,0.0,1851.0,,,,1,0.009850024280643629,
669,Pilot,d10012021,uphHd,memory_test,29.0,1.0,0.0,1.0,36.0,0.0,1883.0,,,,1,0.03925651076279837,
670,Pilot,d10012021,uphHd,memory_test,30.0,0.0,1.0,32.0,24.0,1.0,2239.0,24.0,0.0,643.0,1,0.36640367287676984,-0.4944023751178111
671,Pilot,d10012021,uphHd,memory_test,31.0,0.0,0.0,22.0,32.0,0.0,968.0,,,,1,-0.8015852120863137,
672,Pilot,d09302021,InbSs,memory_test,0.0,0.0,1.0,17.0,8.0,0.0,1849.0,17.0,,,0,0.8482361957645665,
673,Pilot,d09302021,InbSs,memory_test,1.0,1.0,1.0,15.0,40.0,0.0,1933.0,40.0,,,0,1.0284780055839464,
674,Pilot,d09302021,InbSs,memory_test,2.0,1.0,0.0,58.0,44.0,0.0,1144.0,,,,1,-0.6645075652195142,
675,Pilot,d09302021,InbSs,memory_test,3.0,0.0,0.0,0.0,36.0,1.0,1048.0,,0.0,2091.0,0,-0.8704982050130912,0.3062003883936237
676,Pilot,d09302021,InbSs,memory_test,4.0,1.0,0.0,29.0,15.0,0.0,2033.0,,,,1,1.2430515887022557,
677,Pilot,d09302021,InbSs,memory_test,5.0,0.0,1.0,12.0,57.0,0.0,2127.0,57.0,,,0,1.4447507568334665,
678,Pilot,d09302021,InbSs,memory_test,6.0,0.0,0.0,2.0,51.0,0.0,2014.0,,,,1,1.2022826079097768,
679,Pilot,d09302021,InbSs,memory_test,7.0,1.0,1.0,33.0,43.0,1.0,1054.0,43.0,0.0,2960.0,1,-0.8576237900259925,1.3022522400505292
680,Pilot,d09302021,InbSs,memory_test,8.0,1.0,0.0,43.0,22.0,0.0,2296.0,,,,1,1.8073801123034092,
681,Pilot,d09302021,InbSs,memory_test,9.0,0.0,0.0,18.0,3.0,0.0,1198.0,,,,1,-0.5486378303356272,
682,Pilot,d09302021,InbSs,memory_test,10.0,1.0,0.0,32.0,41.0,0.0,1287.0,,,,1,-0.35766734136033185,
683,Pilot,d09302021,InbSs,memory_test,11.0,1.0,1.0,35.0,1.0,0.0,794.0,1.0,,,0,-1.4155151061335969,
684,Pilot,d09302021,InbSs,memory_test,12.0,0.0,1.0,0.0,7.0,0.0,804.0,7.0,,,0,-1.394057747821766,
685,Pilot,d09302021,InbSs,memory_test,13.0,1.0,0.0,33.0,1.0,0.0,1679.0,,,,1,0.4834611044634407,
686,Pilot,d09302021,InbSs,memory_test,14.0,0.0,1.0,2.0,36.0,0.0,1112.0,36.0,,,0,-0.7331711118173732,
687,Pilot,d09302021,InbSs,memory_test,15.0,1.0,1.0,55.0,29.0,1.0,1356.0,29.0,0.0,1163.0,1,-0.20961156900869843,-0.7574775383470072
688,Pilot,d09302021,InbSs,memory_test,16.0,1.0,1.0,4.0,44.0,1.0,1789.0,44.0,0.0,3019.0,1,0.719492045893581,1.3698783151342546
689,Pilot,d09302021,InbSs,memory_test,17.0,0.0,0.0,21.0,12.0,0.0,1393.0,,,,1,-0.13021934325492396,
690,Pilot,d09302021,InbSs,memory_test,18.0,1.0,0.0,35.0,31.0,0.0,803.0,,,,1,-1.3962034836529489,
691,Pilot,d09302021,InbSs,memory_test,19.0,0.0,0.0,37.0,34.0,1.0,1951.0,,1.0,1120.0,0,1.067101250545242,-0.8067643388317562
692,Pilot,d09302021,InbSs,memory_test,20.0,0.0,0.0,7.0,8.0,0.0,1348.0,,,,1,-0.22677745565816315,
693,Pilot,d09302021,InbSs,memory_test,21.0,1.0,1.0,13.0,22.0,0.0,1383.0,13.0,,,0,-0.1516767015667549,
694,Pilot,d09302021,InbSs,memory_test,22.0,0.0,1.0,51.0,18.0,0.0,2605.0,51.0,,,0,2.470412484138985,
695,Pilot,d09302021,InbSs,memory_test,23.0,0.0,1.0,39.0,37.0,0.0,1134.0,37.0,,,0,-0.6859649235313451,
696,Pilot,d09302021,InbSs,memory_test,24.0,1.0,0.0,13.0,55.0,0.0,1426.0,,,,1,-0.05941006082588189,
697,Pilot,d09302021,InbSs,memory_test,25.0,0.0,1.0,3.0,34.0,0.0,1418.0,3.0,,,0,-0.07657594747534664,
698,Pilot,d09302021,InbSs,memory_test,26.0,1.0,1.0,41.0,31.0,0.0,936.0,31.0,,,0,-1.1108206181055975,
699,Pilot,d09302021,InbSs,memory_test,27.0,0.0,0.0,57.0,39.0,0.0,1197.0,,,,1,-0.5507835661668102,
700,Pilot,d09302021,InbSs,memory_test,28.0,1.0,1.0,58.0,32.0,0.0,1344.0,32.0,,,0,-0.23536039898289554,
701,Pilot,d09302021,InbSs,memory_test,29.0,1.0,0.0,4.0,40.0,1.0,1577.0,,0.0,1411.0,0,0.2645960496827652,-0.4732187820628731
702,Pilot,d09302021,InbSs,memory_test,30.0,0.0,0.0,56.0,17.0,0.0,1633.0,,,,1,0.3847572562290184,
703,Pilot,d09302021,InbSs,memory_test,31.0,0.0,1.0,21.0,56.0,1.0,853.0,21.0,1.0,1003.0,1,-1.2889166920937942,-0.9408702843367711
704,Pilot,d10012021,BqKir,memory_test,0.0,1.0,0.0,34.0,56.0,1.0,7618.0,,0.0,5543.0,0,3.6049151796538608,3.0164187664272197
705,Pilot,d10012021,BqKir,memory_test,1.0,0.0,1.0,23.0,40.0,1.0,6301.0,23.0,1.0,2408.0,1,2.8045783185575344,0.3973405711465191
706,Pilot,d10012021,BqKir,memory_test,2.0,0.0,0.0,40.0,26.0,0.0,2362.0,,,,1,0.4108600984676114,
707,Pilot,d10012021,BqKir,memory_test,3.0,1.0,0.0,42.0,3.0,1.0,3676.0,,0.0,1494.0,0,1.2093738687641737,-0.3662439489448876
708,Pilot,d10012021,BqKir,memory_test,4.0,0.0,1.0,15.0,50.0,1.0,762.0,50.0,0.0,1160.0,1,-0.5614549947397703,-0.6452781171183338
709,Pilot,d10012021,BqKir,memory_test,5.0,1.0,1.0,41.0,1.0,0.0,924.0,1.0,,,0,-0.4630080915525229,
710,Pilot,d10012021,BqKir,memory_test,6.0,0.0,1.0,12.0,26.0,0.0,788.0,26.0,,,0,-0.5456548744751504,
711,Pilot,d10012021,BqKir,memory_test,7.0,1.0,0.0,28.0,39.0,0.0,827.0,,,,1,-0.5219546940782205,
712,Pilot,d10012021,BqKir,memory_test,8.0,0.0,1.0,25.0,16.0,1.0,926.0,16.0,0.0,1271.0,1,-0.4617926976860137,-0.5525452049409311
713,Pilot,d10012021,BqKir,memory_test,9.0,0.0,0.0,8.0,23.0,1.0,1642.0,,0.0,2451.0,0,-0.02668169347571038,0.43326413171974726
714,Pilot,d10012021,BqKir,memory_test,10.0,0.0,1.0,29.0,31.0,1.0,1115.0,29.0,0.0,886.0,1,-0.34693797730089176,-0.8741863868175083
715,Pilot,d10012021,BqKir,memory_test,11.0,0.0,0.0,15.0,29.0,1.0,1306.0,,0.0,1380.0,0,-0.23086786304926055,-0.461483156046004
716,Pilot,d10012021,BqKir,memory_test,12.0,0.0,1.0,59.0,10.0,0.0,2298.0,59.0,,,0,0.3719674947393162,
717,Pilot,d10012021,BqKir,memory_test,13.0,1.0,0.0,2.0,41.0,0.0,2203.0,,,,1,0.3142362860801279,
718,Pilot,d10012021,BqKir,memory_test,14.0,1.0,0.0,4.0,24.0,1.0,1724.0,,0.0,1942.0,0,0.023149455051167937,0.008029426329674995
719,Pilot,d10012021,BqKir,memory_test,15.0,0.0,0.0,31.0,59.0,0.0,1020.0,,,,1,-0.40466918596008006,
720,Pilot,d10012021,BqKir,memory_test,16.0,1.0,1.0,2.0,6.0,1.0,438.0,2.0,1.0,3013.0,1,-0.7583488011142652,0.9027767140954263
721,Pilot,d10012021,BqKir,memory_test,17.0,1.0,0.0,51.0,1.0,0.0,1263.0,,,,1,-0.25699883117920896,
722,Pilot,d10012021,BqKir,memory_test,18.0,0.0,1.0,37.0,38.0,1.0,860.0,38.0,1.0,1237.0,1,-0.5019006952808183,-0.5809498807430183
723,Pilot,d10012021,BqKir,memory_test,19.0,1.0,1.0,42.0,28.0,1.0,1097.0,28.0,0.0,1030.0,1,-0.3578765220994748,-0.753884230479256
724,Pilot,d10012021,BqKir,memory_test,20.0,0.0,0.0,38.0,10.0,1.0,391.0,,0.0,1030.0,0,-0.786910556977232,-0.753884230479256
725,Pilot,d10012021,BqKir,memory_test,21.0,1.0,1.0,46.0,56.0,0.0,523.0,56.0,,,0,-0.706694561787623,
726,Pilot,d10012021,BqKir,memory_test,22.0,1.0,0.0,58.0,6.0,0.0,618.0,,,,1,-0.6489633531284347,
727,Pilot,d10012021,BqKir,memory_test,23.0,1.0,0.0,46.0,57.0,1.0,441.0,,0.0,2120.0,0,-0.7565257103145013,0.1567362584700146
728,Pilot,d10012021,BqKir,memory_test,24.0,1.0,1.0,24.0,3.0,1.0,389.0,3.0,0.0,1127.0,1,-0.7881259508437413,-0.6728473612791833
729,Pilot,d10012021,BqKir,memory_test,25.0,0.0,1.0,22.0,8.0,0.0,1342.0,22.0,,,0,-0.20899077345209446,
730,Pilot,d10012021,BqKir,memory_test,26.0,0.0,0.0,22.0,25.0,1.0,1131.0,,1.0,3543.0,0,-0.33721482636881794,1.3455554839514936
731,Pilot,d10012021,BqKir,memory_test,27.0,1.0,1.0,4.0,51.0,1.0,1260.0,4.0,1.0,2406.0,1,-0.2588219219789728,0.3956697078640434
732,Pilot,d10012021,BqKir,memory_test,28.0,0.0,0.0,50.0,12.0,0.0,3981.0,,,,1,1.3947214334068307,
733,Pilot,d10012021,BqKir,memory_test,29.0,0.0,0.0,16.0,37.0,0.0,1783.0,,,,1,0.05900357411319014,
734,Pilot,d10012021,BqKir,memory_test,30.0,1.0,1.0,39.0,57.0,1.0,2413.0,57.0,0.0,742.0,1,0.4418526420635967,-0.9944885431557605
735,Pilot,d10012021,BqKir,memory_test,31.0,1.0,1.0,58.0,34.0,0.0,527.0,58.0,,,0,-0.7042637740546046,
736,Pilot,d09302021,OxXnd,memory_test,0.0,1.0,0.0,11.0,57.0,1.0,2425.0,,1.0,1134.0,0,2.454649534995556,2.8889008727424805
737,Pilot,d09302021,OxXnd,memory_test,1.0,0.0,1.0,22.0,12.0,1.0,1389.0,22.0,1.0,390.0,1,0.6174584620698172,-0.2010103539976078
738,Pilot,d09302021,OxXnd,memory_test,2.0,0.0,1.0,51.0,42.0,0.0,1459.0,51.0,,,0,0.741592994024259,
739,Pilot,d09302021,OxXnd,memory_test,3.0,0.0,0.0,42.0,15.0,1.0,1347.0,,0.0,838.0,0,0.5429777428971522,1.6595813524265313
740,Pilot,d09302021,OxXnd,memory_test,4.0,1.0,1.0,57.0,56.0,1.0,1059.0,56.0,0.0,662.0,1,0.03225281142744872,0.9286346106170481
741,Pilot,d09302021,OxXnd,memory_test,5.0,0.0,0.0,13.0,3.0,0.0,2308.0,,,,1,2.247167531585989,
742,Pilot,d09302021,OxXnd,memory_test,6.0,0.0,1.0,26.0,4.0,1.0,827.0,26.0,1.0,478.0,1,-0.37916449447870126,0.16446301690713383
743,Pilot,d09302021,OxXnd,memory_test,7.0,1.0,0.0,7.0,16.0,1.0,1252.0,,0.0,1031.0,0,0.3745094495304097,2.4611309045244307
744,Pilot,d09302021,OxXnd,memory_test,8.0,1.0,1.0,47.0,55.0,1.0,1547.0,55.0,0.0,565.0,1,0.8976478341955574,0.5257832813243215
745,Pilot,d09302021,OxXnd,memory_test,9.0,0.0,1.0,18.0,49.0,0.0,819.0,18.0,,,0,-0.3933512981306375,
746,Pilot,d09302021,OxXnd,memory_test,10.0,1.0,0.0,41.0,43.0,1.0,699.0,,0.0,278.0,0,-0.6061533529096806,-0.6661582806036426
747,Pilot,d09302021,OxXnd,memory_test,11.0,0.0,0.0,22.0,4.0,0.0,1044.0,,,,1,0.0056525545800683325,
748,Pilot,d09302021,OxXnd,memory_test,12.0,1.0,0.0,2.0,48.0,1.0,1004.0,,1.0,366.0,0,-0.0652814636796127,-0.30068490969890094
749,Pilot,d09302021,OxXnd,memory_test,13.0,0.0,1.0,15.0,8.0,1.0,844.0,15.0,1.0,365.0,1,-0.34901753671833685,-0.30483801618645484
750,Pilot,d09302021,OxXnd,memory_test,14.0,0.0,1.0,21.0,3.0,1.0,668.0,21.0,1.0,318.0,1,-0.6611272170609334,-0.5000340211014873
751,Pilot,d09302021,OxXnd,memory_test,15.0,1.0,0.0,36.0,1.0,1.0,1044.0,,0.0,302.0,0,0.0056525545800683325,-0.5664837249023494
752,Pilot,d09302021,OxXnd,memory_test,16.0,1.0,1.0,2.0,36.0,1.0,852.0,2.0,1.0,390.0,1,-0.33483073306640065,-0.2010103539976078
753,Pilot,d09302021,OxXnd,memory_test,17.0,0.0,0.0,18.0,12.0,1.0,988.0,,1.0,286.0,0,-0.09365507098348512,-0.6329334287032116
754,Pilot,d09302021,OxXnd,memory_test,18.0,1.0,1.0,43.0,48.0,1.0,2596.0,43.0,1.0,294.0,1,2.7578924630556925,-0.5997085768027804
755,Pilot,d09302021,OxXnd,memory_test,19.0,1.0,1.0,7.0,1.0,1.0,827.0,1.0,0.0,254.0,1,-0.37916449447870126,-0.7658328363049357
756,Pilot,d09302021,OxXnd,memory_test,20.0,1.0,1.0,39.0,35.0,0.0,898.0,39.0,,,0,-0.25325661206776745,
757,Pilot,d09302021,OxXnd,memory_test,21.0,1.0,0.0,35.0,56.0,1.0,787.0,,0.0,303.0,0,-0.4500985127383823,-0.5623306184147955
758,Pilot,d09302021,OxXnd,memory_test,22.0,1.0,1.0,33.0,16.0,1.0,564.0,16.0,0.0,278.0,1,-0.8455556645361041,-0.6661582806036426
759,Pilot,d09302021,OxXnd,memory_test,23.0,1.0,0.0,39.0,47.0,0.0,247.0,,,,1,-1.4077077592440763,
760,Pilot,d09302021,OxXnd,memory_test,24.0,0.0,1.0,28.0,44.0,1.0,515.0,28.0,1.0,423.0,1,-0.9324498369042133,-0.06395783990832969
761,Pilot,d09302021,OxXnd,memory_test,25.0,0.0,0.0,8.0,28.0,1.0,276.0,,0.0,374.0,0,-1.3562805960058075,-0.26746005779846993
762,Pilot,d09302021,OxXnd,memory_test,26.0,1.0,0.0,55.0,33.0,0.0,307.0,,,,1,-1.3013067318545548,
763,Pilot,d09302021,OxXnd,memory_test,27.0,1.0,1.0,11.0,41.0,1.0,915.0,11.0,1.0,255.0,1,-0.223109654307403,-0.7616797298173819
764,Pilot,d09302021,OxXnd,memory_test,28.0,0.0,0.0,49.0,51.0,1.0,723.0,,1.0,342.0,0,-0.563592941953872,-0.4003594654001941
765,Pilot,d09302021,OxXnd,memory_test,29.0,0.0,1.0,52.0,13.0,1.0,908.0,13.0,0.0,534.0,1,-0.2355231075028472,0.3970369802101512
766,Pilot,d09302021,OxXnd,memory_test,30.0,0.0,0.0,44.0,21.0,1.0,1452.0,,0.0,198.0,0,0.7291795408288149,-0.9984067996079532
767,Pilot,d09302021,OxXnd,memory_test,31.0,0.0,0.0,26.0,52.0,1.0,716.0,,1.0,302.0,0,-0.5760063951493162,-0.5664837249023494
768,Pilot,d09302021,VP3Tz,memory_test,0.0,0.0,1.0,57.0,56.0,1.0,2091.0,57.0,1.0,2670.0,1,1.9827470588102327,2.812706371437483
769,Pilot,d09302021,VP3Tz,memory_test,1.0,0.0,0.0,56.0,23.0,0.0,1950.0,,,,1,1.5643896547066147,
770,Pilot,d09302021,VP3Tz,memory_test,2.0,0.0,0.0,39.0,7.0,0.0,2082.0,,,,1,1.9560433947185125,
771,Pilot,d09302021,VP3Tz,memory_test,3.0,1.0,1.0,1.0,17.0,0.0,1324.0,1.0,,,0,-0.29299853656193114,
772,Pilot,d09302021,VP3Tz,memory_test,4.0,1.0,0.0,58.0,50.0,1.0,1455.0,,1.0,767.0,0,0.09568812966199776,-0.019875617803396514
773,Pilot,d09302021,VP3Tz,memory_test,5.0,1.0,1.0,27.0,24.0,1.0,1879.0,27.0,1.0,782.0,1,1.353727415760821,0.0024516180550444707
774,Pilot,d09302021,VP3Tz,memory_test,6.0,0.0,0.0,42.0,46.0,1.0,1677.0,,1.0,324.0,0,0.7543785105910986,-0.679273316822687
775,Pilot,d09302021,VP3Tz,memory_test,7.0,0.0,1.0,59.0,28.0,1.0,1338.0,59.0,1.0,250.0,1,-0.2514595035303662,-0.7894210137243292
776,Pilot,d09302021,VP3Tz,memory_test,8.0,0.0,0.0,32.0,3.0,0.0,1110.0,,,,1,-0.9279523271872807,
777,Pilot,d09302021,VP3Tz,memory_test,9.0,1.0,1.0,25.0,37.0,1.0,1502.0,25.0,1.0,250.0,1,0.23514059769653714,-0.7894210137243292
778,Pilot,d09302021,VP3Tz,memory_test,10.0,1.0,1.0,41.0,26.0,1.0,1574.0,26.0,0.0,1707.0,1,0.4487699104302996,1.379297829325572
779,Pilot,d09302021,VP3Tz,memory_test,11.0,0.0,1.0,3.0,34.0,1.0,1653.0,34.0,0.0,1630.0,1,0.6831687396798445,1.2646846852522415
780,Pilot,d09302021,VP3Tz,memory_test,12.0,0.0,1.0,53.0,7.0,1.0,1912.0,7.0,0.0,519.0,1,1.4516408507637955,-0.3890192506629541
781,Pilot,d09302021,VP3Tz,memory_test,13.0,1.0,0.0,8.0,25.0,0.0,1737.0,,,,1,0.932402937869234,
782,Pilot,d09302021,VP3Tz,memory_test,14.0,1.0,0.0,27.0,17.0,0.0,1286.0,,,,1,-0.4057473405047502,
783,Pilot,d09302021,VP3Tz,memory_test,15.0,1.0,1.0,58.0,29.0,0.0,1028.0,58.0,,,0,-1.1712523778007324,
784,Pilot,d09302021,VP3Tz,memory_test,16.0,0.0,0.0,57.0,28.0,0.0,1178.0,,,,1,-0.7261913096053939,
785,Pilot,d09302021,VP3Tz,memory_test,17.0,0.0,1.0,39.0,42.0,1.0,1152.0,42.0,0.0,620.0,1,-0.8033352280925858,-0.23868252921611818
786,Pilot,d09302021,VP3Tz,memory_test,18.0,0.0,1.0,14.0,23.0,1.0,1466.0,23.0,1.0,306.0,1,0.1283259413296559,-0.7060659998528162
787,Pilot,d09302021,VP3Tz,memory_test,19.0,1.0,1.0,8.0,31.0,1.0,1381.0,31.0,0.0,813.0,1,-0.12387533064770254,0.04859457216248918
788,Pilot,d09302021,VP3Tz,memory_test,20.0,1.0,0.0,41.0,33.0,1.0,1315.0,,0.0,1222.0,0,-0.31970220065365146,0.6573838699026467
789,Pilot,d09302021,VP3Tz,memory_test,21.0,1.0,0.0,29.0,12.0,0.0,1497.0,,,,1,0.22030522875669253,
790,Pilot,d09302021,VP3Tz,memory_test,22.0,0.0,1.0,46.0,32.0,1.0,1229.0,32.0,0.0,535.0,1,-0.5748705464189788,-0.3652035324139504
791,Pilot,d09302021,VP3Tz,memory_test,23.0,0.0,0.0,53.0,21.0,0.0,1638.0,,,,1,0.6386626328603107,
792,Pilot,d09302021,VP3Tz,memory_test,24.0,1.0,0.0,31.0,24.0,0.0,1158.0,,,,1,-0.7855327853647723,
793,Pilot,d09302021,VP3Tz,memory_test,25.0,0.0,0.0,34.0,14.0,0.0,1077.0,,,,1,-1.0258657621902552,
794,Pilot,d09302021,VP3Tz,memory_test,26.0,0.0,0.0,35.0,59.0,0.0,1068.0,,,,1,-1.0525694262819754,
795,Pilot,d09302021,VP3Tz,memory_test,27.0,1.0,1.0,33.0,50.0,1.0,1145.0,33.0,1.0,337.0,1,-0.8241047446083684,-0.6599230457453714
796,Pilot,d09302021,VP3Tz,memory_test,28.0,1.0,0.0,26.0,37.0,1.0,804.0,,1.0,255.0,0,-1.8358769063057712,-0.7819786017715155
797,Pilot,d09302021,VP3Tz,memory_test,29.0,1.0,0.0,5.0,1.0,0.0,1718.0,,,,1,0.8760285358978245,
798,Pilot,d09302021,VP3Tz,memory_test,30.0,1.0,1.0,12.0,5.0,1.0,1093.0,12.0,1.0,279.0,1,-0.9783925815827523,-0.74625502439801
799,Pilot,d09302021,VP3Tz,memory_test,31.0,0.0,1.0,35.0,21.0,0.0,1011.0,21.0,,,0,-1.221692632196204,
800,Pilot,d10012021,k3zzQ,memory_test,0.0,1.0,0.0,55.0,18.0,1.0,4379.0,,0.0,6452.0,0,3.3914466147957603,1.4486985594454354
801,Pilot,d10012021,k3zzQ,memory_test,1.0,1.0,1.0,10.0,14.0,1.0,3179.0,10.0,0.0,2726.0,1,2.152043230500991,-0.34565059122146136
802,Pilot,d10012021,k3zzQ,memory_test,2.0,0.0,1.0,50.0,36.0,0.0,3004.0,50.0,,,0,1.9712969036246704,
803,Pilot,d10012021,k3zzQ,memory_test,3.0,1.0,0.0,44.0,32.0,0.0,1665.0,,,,1,0.5883292939824234,
804,Pilot,d10012021,k3zzQ,memory_test,4.0,1.0,1.0,0.0,59.0,0.0,1221.0,59.0,,,0,0.1297500417933587,
805,Pilot,d10012021,k3zzQ,memory_test,5.0,0.0,1.0,7.0,35.0,0.0,885.0,35.0,,,0,-0.21728290580917678,
806,Pilot,d10012021,k3zzQ,memory_test,6.0,1.0,0.0,24.0,23.0,0.0,1227.0,,,,1,0.13594705871483254,
807,Pilot,d10012021,k3zzQ,memory_test,7.0,1.0,1.0,32.0,43.0,0.0,1111.0,43.0,,,0,0.016138064899671477,
808,Pilot,d10012021,k3zzQ,memory_test,8.0,0.0,1.0,31.0,46.0,1.0,1844.0,31.0,1.0,1687.0,1,0.7732069654730599,-0.8460072116033469
809,Pilot,d10012021,k3zzQ,memory_test,9.0,0.0,0.0,25.0,35.0,0.0,1591.0,,,,1,0.5118994186175793,
810,Pilot,d10012021,k3zzQ,memory_test,10.0,1.0,0.0,39.0,45.0,0.0,1692.0,,,,1,0.6162158701290558,
811,Pilot,d10012021,k3zzQ,memory_test,11.0,0.0,0.0,37.0,40.0,0.0,1808.0,,,,1,0.7360248639442167,
812,Pilot,d10012021,k3zzQ,memory_test,12.0,1.0,1.0,44.0,39.0,0.0,1356.0,44.0,,,0,0.26918292252652026,
813,Pilot,d10012021,k3zzQ,memory_test,13.0,0.0,0.0,33.0,57.0,0.0,913.0,,,,1,-0.1883634935089655,
814,Pilot,d10012021,k3zzQ,memory_test,14.0,1.0,0.0,12.0,59.0,0.0,421.0,,,,1,-0.696518881069821,
815,Pilot,d10012021,k3zzQ,memory_test,15.0,0.0,0.0,34.0,31.0,0.0,318.0,,,,1,-0.8029010048884554,
816,Pilot,d10012021,k3zzQ,memory_test,16.0,1.0,1.0,55.0,24.0,0.0,276.0,55.0,,,0,-0.8462801233387723,
817,Pilot,d10012021,k3zzQ,memory_test,17.0,0.0,1.0,57.0,34.0,0.0,280.0,57.0,,,0,-0.8421487787244564,
818,Pilot,d10012021,k3zzQ,memory_test,18.0,1.0,0.0,10.0,11.0,0.0,301.0,,,,1,-0.8204592194992979,
819,Pilot,d10012021,k3zzQ,memory_test,19.0,1.0,1.0,11.0,1.0,0.0,719.0,1.0,,,0,-0.38873370730328655,
820,Pilot,d10012021,k3zzQ,memory_test,20.0,0.0,1.0,47.0,52.0,0.0,915.0,47.0,,,0,-0.18629782120180755,
821,Pilot,d10012021,k3zzQ,memory_test,21.0,0.0,1.0,40.0,2.0,0.0,656.0,2.0,,,0,-0.45380238497876196,
822,Pilot,d10012021,k3zzQ,memory_test,22.0,0.0,0.0,46.0,2.0,0.0,410.0,,,,1,-0.7078800787591897,
823,Pilot,d10012021,k3zzQ,memory_test,23.0,0.0,1.0,37.0,25.0,0.0,454.0,37.0,,,0,-0.6624352880017148,
824,Pilot,d10012021,k3zzQ,memory_test,24.0,0.0,0.0,47.0,7.0,0.0,422.0,,,,1,-0.695486044916242,
825,Pilot,d10012021,k3zzQ,memory_test,25.0,1.0,0.0,43.0,14.0,0.0,698.0,,,,1,-0.410423266528445,
826,Pilot,d10012021,k3zzQ,memory_test,26.0,0.0,0.0,42.0,36.0,0.0,399.0,,,,1,-0.7192412764485584,
827,Pilot,d10012021,k3zzQ,memory_test,27.0,1.0,1.0,18.0,45.0,0.0,321.0,45.0,,,0,-0.7998024964277185,
828,Pilot,d10012021,k3zzQ,memory_test,28.0,0.0,1.0,33.0,42.0,0.0,302.0,42.0,,,0,-0.8194263833457189,
829,Pilot,d10012021,k3zzQ,memory_test,29.0,1.0,0.0,0.0,1.0,0.0,320.0,,,,1,-0.8008353325812975,
830,Pilot,d10012021,k3zzQ,memory_test,30.0,0.0,0.0,50.0,52.0,0.0,314.0,,,,1,-0.8070323495027713,
831,Pilot,d10012021,k3zzQ,memory_test,31.0,1.0,1.0,12.0,23.0,1.0,1651.0,23.0,0.0,2910.0,1,0.5738695878323178,-0.257040756620627
832,Pilot,d10012021,Vcm96,memory_test,0.0,0.0,0.0,58.0,31.0,1.0,2648.0,,0.0,4470.0,0,1.418762628936511,3.7125428189798764
833,Pilot,d10012021,Vcm96,memory_test,1.0,1.0,0.0,52.0,11.0,0.0,2168.0,,,,1,0.33618965424874103,
834,Pilot,d10012021,Vcm96,memory_test,2.0,1.0,0.0,2.0,22.0,1.0,1529.0,,1.0,817.0,0,-1.1049856183043527,-0.007772208552338704
835,Pilot,d10012021,Vcm96,memory_test,3.0,0.0,0.0,29.0,40.0,0.0,1884.0,,,,1,-0.3043326891081895,
836,Pilot,d10012021,Vcm96,memory_test,4.0,1.0,1.0,52.0,38.0,1.0,2316.0,52.0,1.0,1517.0,1,0.6699829881108035,0.7051269207311408
837,Pilot,d10012021,Vcm96,memory_test,5.0,1.0,0.0,4.0,55.0,0.0,2531.0,,,,1,1.154885466356367,
838,Pilot,d10012021,Vcm96,memory_test,6.0,1.0,1.0,2.0,19.0,1.0,1392.0,2.0,1.0,292.0,1,-1.4139699881631536,-0.5424465555149484
839,Pilot,d10012021,Vcm96,memory_test,7.0,0.0,1.0,53.0,40.0,1.0,1389.0,53.0,1.0,1141.0,1,-1.4207360692549522,0.3221982455731575
840,Pilot,d10012021,Vcm96,memory_test,8.0,0.0,1.0,15.0,43.0,1.0,2531.0,43.0,0.0,702.0,1,1.154885466356367,-0.12489135122033891
841,Pilot,d10012021,Vcm96,memory_test,9.0,0.0,1.0,36.0,31.0,1.0,2902.0,31.0,0.0,286.0,1,1.991624161375456,-0.5485571194802353
842,Pilot,d10012021,Vcm96,memory_test,10.0,1.0,0.0,39.0,42.0,1.0,1824.0,,0.0,274.0,0,-0.43965431094416074,-0.5607782474108092
843,Pilot,d10012021,Vcm96,memory_test,11.0,1.0,0.0,8.0,12.0,1.0,2160.0,,0.0,840.0,0,0.3181467713372782,0.015651619981261335
844,Pilot,d10012021,Vcm96,memory_test,12.0,0.0,1.0,21.0,29.0,0.0,2221.0,29.0,,,0,0.4557237535371823,
845,Pilot,d10012021,Vcm96,memory_test,13.0,1.0,1.0,42.0,8.0,0.0,2545.0,42.0,,,0,1.186460511451427,
846,Pilot,d10012021,Vcm96,memory_test,14.0,1.0,1.0,12.0,22.0,1.0,1924.0,12.0,1.0,299.0,1,-0.21411827455087531,-0.5353175642221135
847,Pilot,d10012021,Vcm96,memory_test,15.0,1.0,1.0,45.0,23.0,0.0,1853.0,45.0,,,0,-0.37424886039010796,
848,Pilot,d10012021,Vcm96,memory_test,16.0,0.0,1.0,48.0,7.0,1.0,1817.0,7.0,0.0,848.0,1,-0.4554418334916907,0.02379903860164396
849,Pilot,d10012021,Vcm96,memory_test,17.0,0.0,0.0,44.0,21.0,0.0,1596.0,,,,1,-0.9538764739208514,
850,Pilot,d10012021,Vcm96,memory_test,18.0,0.0,1.0,27.0,44.0,1.0,2095.0,44.0,0.0,1610.0,1,0.1715483476816427,0.7998406621930888
851,Pilot,d10012021,Vcm96,memory_test,19.0,0.0,1.0,28.0,56.0,1.0,1706.0,56.0,0.0,298.0,1,-0.7057868338882375,-0.5363359915496614
852,Pilot,d10012021,Vcm96,memory_test,20.0,0.0,0.0,7.0,15.0,1.0,1852.0,,1.0,803.0,0,-0.37650422075404083,-0.022030191138008293
853,Pilot,d10012021,Vcm96,memory_test,21.0,1.0,0.0,38.0,45.0,0.0,1922.0,,,,1,-0.21862899527874102,
854,Pilot,d10012021,Vcm96,memory_test,22.0,1.0,0.0,1.0,19.0,1.0,2231.0,,1.0,252.0,0,0.4782773571765109,-0.5831836486168614
855,Pilot,d10012021,Vcm96,memory_test,23.0,0.0,0.0,48.0,56.0,1.0,2439.0,,0.0,227.0,0,0.9473923128745445,-0.6086443318055571
856,Pilot,d10012021,Vcm96,memory_test,24.0,1.0,1.0,55.0,11.0,0.0,1077.0,55.0,,,0,-2.1244085028020026,
857,Pilot,d10012021,Vcm96,memory_test,25.0,1.0,1.0,4.0,1.0,1.0,1781.0,1.0,0.0,315.0,1,-0.5366348065932735,-0.5190227269813483
858,Pilot,d10012021,Vcm96,memory_test,26.0,0.0,0.0,27.0,43.0,0.0,1828.0,,,,1,-0.4306328694884293,
859,Pilot,d10012021,Vcm96,memory_test,27.0,0.0,0.0,16.0,28.0,0.0,1769.0,,,,1,-0.5636991309604676,
860,Pilot,d10012021,Vcm96,memory_test,28.0,1.0,0.0,35.0,23.0,1.0,2182.0,,1.0,389.0,0,0.367764699343801,-0.443659104742809
861,Pilot,d10012021,Vcm96,memory_test,29.0,1.0,1.0,35.0,39.0,0.0,1339.0,35.0,,,0,-1.5335040874515948,
862,Pilot,d10012021,Vcm96,memory_test,30.0,0.0,0.0,36.0,53.0,0.0,2785.0,,,,1,1.727746998795312,
863,Pilot,d10012021,Vcm96,memory_test,31.0,0.0,1.0,16.0,58.0,1.0,2370.0,16.0,1.0,288.0,1,0.7917724477631776,-0.5465202648251396
864,Pilot,d10012021,wdYzB,memory_test,0.0,0.0,0.0,27.0,52.0,0.0,4210.0,,,,1,0.6733906544801052,
865,Pilot,d10012021,wdYzB,memory_test,1.0,1.0,1.0,24.0,48.0,1.0,1716.0,24.0,1.0,3358.0,1,0.07306937755657539,1.3912627581919255
866,Pilot,d10012021,wdYzB,memory_test,2.0,0.0,0.0,40.0,1.0,0.0,2028.0,,,,1,0.14816971372343235,
867,Pilot,d10012021,wdYzB,memory_test,3.0,1.0,1.0,22.0,10.0,0.0,1206.0,10.0,,,0,-0.049690787331556206,
868,Pilot,d10012021,wdYzB,memory_test,4.0,0.0,0.0,54.0,26.0,0.0,1849.0,,,,1,0.1050833029097548,
869,Pilot,d10012021,wdYzB,memory_test,5.0,0.0,1.0,53.0,40.0,1.0,486.0,53.0,1.0,1397.0,1,-0.22299925540891846,-0.17468143398162359
870,Pilot,d10012021,wdYzB,memory_test,6.0,1.0,0.0,24.0,18.0,0.0,1864.0,,,,1,0.10869389599469985,
871,Pilot,d10012021,wdYzB,memory_test,7.0,1.0,0.0,10.0,31.0,0.0,636.0,,,,1,-0.18689332455946797,
872,Pilot,d10012021,wdYzB,memory_test,8.0,1.0,1.0,18.0,16.0,1.0,1123.0,16.0,0.0,1334.0,1,-0.06966940240158546,-0.2249896869683312
873,Pilot,d10012021,wdYzB,memory_test,9.0,1.0,0.0,37.0,48.0,0.0,674.0,,,,1,-0.17774648874427387,
874,Pilot,d10012021,wdYzB,memory_test,10.0,0.0,1.0,1.0,2.0,0.0,211.0,1.0,,,0,-0.2891934619662443,
875,Pilot,d10012021,wdYzB,memory_test,11.0,0.0,0.0,53.0,45.0,0.0,229.0,,,,1,-0.28486075026431024,
876,Pilot,d10012021,wdYzB,memory_test,12.0,0.0,0.0,41.0,13.0,0.0,357.0,,,,1,-0.25405035593944586,
877,Pilot,d10012021,wdYzB,memory_test,13.0,1.0,0.0,36.0,11.0,0.0,657.0,,,,1,-0.1818384942405449,
878,Pilot,d10012021,wdYzB,memory_test,14.0,0.0,1.0,41.0,27.0,0.0,266.0,27.0,,,0,-0.27595462065477916,
879,Pilot,d10012021,wdYzB,memory_test,15.0,1.0,1.0,17.0,34.0,0.0,490.0,34.0,,,0,-0.22203643058626643,
880,Pilot,d10012021,wdYzB,memory_test,16.0,0.0,0.0,12.0,0.0,0.0,961.0,,,,1,-0.10866380771899196,
881,Pilot,d10012021,wdYzB,memory_test,17.0,1.0,0.0,17.0,42.0,0.0,357.0,,,,1,-0.25405035593944586,
882,Pilot,d10012021,wdYzB,memory_test,18.0,0.0,1.0,12.0,54.0,0.0,238.0,54.0,,,0,-0.2826943944133432,
883,Pilot,d10012021,wdYzB,memory_test,19.0,0.0,1.0,45.0,0.0,0.0,27.0,0.0,,,0,-0.3334834038082369,
884,Pilot,d10012021,wdYzB,memory_test,20.0,1.0,0.0,22.0,16.0,0.0,248.0,,,,1,-0.2802873323567132,
885,Pilot,d10012021,wdYzB,memory_test,21.0,1.0,0.0,15.0,34.0,1.0,1149.0,,0.0,374.0,0,-0.06341104105434739,-0.9915916372419706
