,Exp,group,PID,phase,block,trial,stimulus_id,reward_type,reward_amount,see_reward_rt,zscored_see_reward_rt,register_reward_response,register_reward_rt,zscored_register_reward_rt,register_reward_acc
0,Pilot,d10012021,arjeO,reward_learning,1.0,0.0,4.0,1.0,153.0,1145.0,4.33192142194694,,,,0
1,Pilot,d10012021,arjeO,reward_learning,1.0,1.0,49.0,-1.0,0.0,1088.0,3.936025404896524,-1.0,920.0,1.9929105203673656,1
2,Pilot,d10012021,arjeO,reward_learning,1.0,2.0,56.0,1.0,149.0,892.0,2.5746987497757954,1.0,919.0,1.9846016245789473,1
3,Pilot,d10012021,arjeO,reward_learning,1.0,3.0,36.0,1.0,150.0,687.0,1.1508621972260538,1.0,952.0,2.258795185596752,1
4,Pilot,d10012021,arjeO,reward_learning,1.0,4.0,32.0,-1.0,0.0,672.0,1.0466790348443653,-1.0,895.0,1.7851881256569078,1
5,Pilot,d10012021,arjeO,reward_learning,1.0,5.0,48.0,-1.0,0.0,694.0,1.1994810063375083,-1.0,765.0,0.7050316731625266,1
6,Pilot,d10012021,arjeO,reward_learning,1.0,6.0,8.0,-1.0,0.0,403.0,-0.8216723438672471,1.0,1176.0,4.1199878422024545,0
7,Pilot,d10012021,arjeO,reward_learning,1.0,7.0,40.0,1.0,152.0,640.0,0.82442162176343,1.0,709.0,0.23973350901110096,1
8,Pilot,d10012021,arjeO,reward_learning,1.0,8.0,39.0,-1.0,0.0,526.0,0.032629587662597985,-1.0,810.0,1.078931983641351,1
9,Pilot,d10012021,arjeO,reward_learning,1.0,9.0,19.0,-1.0,0.0,371.0,-1.0439297569481825,-1.0,817.0,1.137094254160279,1
10,Pilot,d10012021,arjeO,reward_learning,1.0,10.0,19.0,-1.0,0.0,389.0,-0.9189099620901563,-1.0,591.0,-0.7407161940222603,1
11,Pilot,d10012021,arjeO,reward_learning,1.0,11.0,7.0,1.0,143.0,372.0,-1.0369842127894031,1.0,710.0,0.24804240479951928,1
12,Pilot,d10012021,arjeO,reward_learning,1.0,12.0,49.0,-1.0,0.0,564.0,0.29656026569620864,-1.0,720.0,0.3311313626837024,1
13,Pilot,d10012021,arjeO,reward_learning,1.0,13.0,4.0,1.0,153.0,363.0,-1.0994941102184161,1.0,672.0,-0.06769563516037672,1
14,Pilot,d10012021,arjeO,reward_learning,1.0,14.0,41.0,-1.0,0.0,506.0,-0.10628129551298658,-1.0,749.0,0.5720893405478336,1
15,Pilot,d10012021,arjeO,reward_learning,1.0,15.0,32.0,-1.0,0.0,519.0,-0.015989221448856613,-1.0,761.0,0.6717960900088533,1
16,Pilot,d10012021,arjeO,reward_learning,1.0,16.0,12.0,-1.0,0.0,592.0,0.49103550214202707,-1.0,689.0,0.07355559324273464,1
17,Pilot,d10012021,arjeO,reward_learning,1.0,17.0,36.0,1.0,150.0,397.0,-0.8633456088199225,1.0,742.0,0.5139270700289054,1
18,Pilot,d10012021,arjeO,reward_learning,1.0,18.0,56.0,1.0,149.0,524.0,0.01873849934503953,1.0,612.0,-0.5662293824654756,1
19,Pilot,d10012021,arjeO,reward_learning,1.0,19.0,12.0,-1.0,0.0,509.0,-0.0854446630366489,-1.0,746.0,0.5471626531825786,1
20,Pilot,d10012021,arjeO,reward_learning,1.0,20.0,7.0,1.0,143.0,633.0,0.7758028126519754,1.0,635.0,-0.3751247793318544,1
21,Pilot,d10012021,arjeO,reward_learning,1.0,21.0,41.0,-1.0,0.0,445.0,-0.5299594891985195,-1.0,632.0,-0.40005146669710934,1
22,Pilot,d10012021,arjeO,reward_learning,1.0,22.0,39.0,-1.0,0.0,472.0,-0.34242979691148034,-1.0,1170.0,4.070134467471944,1
23,Pilot,d10012021,arjeO,reward_learning,1.0,23.0,8.0,-1.0,0.0,518.0,-0.02293476560763584,-1.0,609.0,-0.5911560698307307,1
24,Pilot,d10012021,arjeO,reward_learning,1.0,24.0,5.0,1.0,151.0,402.0,-0.8286178880260263,1.0,716.0,0.29789577953002916,1
25,Pilot,d10012021,arjeO,reward_learning,1.0,25.0,40.0,1.0,152.0,459.0,-0.4327218709756103,1.0,554.0,-1.048145338193738,1
26,Pilot,d10012021,arjeO,reward_learning,1.0,26.0,47.0,1.0,144.0,605.0,0.581327576206157,1.0,639.0,-0.34188919617818114,1
27,Pilot,d10012021,arjeO,reward_learning,1.0,27.0,5.0,1.0,151.0,472.0,-0.34242979691148034,1.0,544.0,-1.1312342960779211,1
28,Pilot,d10012021,arjeO,reward_learning,1.0,28.0,25.0,1.0,142.0,541.0,0.13681275004428642,1.0,693.0,0.10679117639640791,1
29,Pilot,d10012021,arjeO,reward_learning,1.0,29.0,25.0,1.0,142.0,484.0,-0.2590832670061296,1.0,678.0,-0.01784226042986683,1
30,Pilot,d10012021,arjeO,reward_learning,1.0,30.0,48.0,-1.0,0.0,603.0,0.5674364878885986,-1.0,686.0,0.0486289058774797,1
31,Pilot,d10012021,arjeO,reward_learning,1.0,31.0,47.0,1.0,144.0,502.0,-0.1340634721481035,1.0,543.0,-1.1395431918663395,1
32,Pilot,d10012021,arjeO,reward_learning,2.0,32.0,25.0,1.0,142.0,731.0,1.4564661402123398,1.0,687.0,0.056937801665898014,1
33,Pilot,d10012021,arjeO,reward_learning,2.0,33.0,36.0,1.0,150.0,584.0,0.4354711488717932,1.0,756.0,0.6302516110667618,1
34,Pilot,d10012021,arjeO,reward_learning,2.0,34.0,39.0,-1.0,0.0,678.0,1.0883522997970407,-1.0,661.0,-0.1590934888329782,1
35,Pilot,d10012021,arjeO,reward_learning,2.0,35.0,4.0,1.0,153.0,337.0,-1.280078258346676,1.0,741.0,0.505618174240487,1
36,Pilot,d10012021,arjeO,reward_learning,2.0,36.0,41.0,-1.0,0.0,479.0,-0.29381098780002574,-1.0,621.0,-0.49144932036971084,1
37,Pilot,d10012021,arjeO,reward_learning,2.0,37.0,49.0,-1.0,0.0,451.0,-0.4882862242458441,-1.0,645.0,-0.29203582144767126,1
38,Pilot,d10012021,arjeO,reward_learning,2.0,38.0,19.0,-1.0,0.0,398.0,-0.8564000646611433,-1.0,679.0,-0.009533364641448513,1
39,Pilot,d10012021,arjeO,reward_learning,2.0,39.0,48.0,-1.0,0.0,463.0,-0.4049396943404934,-1.0,895.0,1.7851881256569078,1
40,Pilot,d10012021,arjeO,reward_learning,2.0,40.0,7.0,1.0,143.0,488.0,-0.23130109037101268,1.0,663.0,-0.14247569725614156,1
41,Pilot,d10012021,arjeO,reward_learning,2.0,41.0,40.0,1.0,152.0,445.0,-0.5299594891985195,1.0,629.0,-0.4249781540623643,1
42,Pilot,d10012021,arjeO,reward_learning,2.0,42.0,19.0,-1.0,0.0,407.0,-0.7938901672321301,-1.0,676.0,-0.03446005200670346,1
43,Pilot,d10012021,arjeO,reward_learning,2.0,43.0,49.0,-1.0,0.0,558.0,0.25488700074353327,-1.0,710.0,0.24804240479951928,1
44,Pilot,d10012021,arjeO,reward_learning,2.0,44.0,47.0,1.0,144.0,674.0,1.0605701231619238,1.0,808.0,1.0623141920645143,1
45,Pilot,d10012021,arjeO,reward_learning,2.0,45.0,41.0,-1.0,0.0,398.0,-0.8564000646611433,-1.0,621.0,-0.49144932036971084,1
46,Pilot,d10012021,arjeO,reward_learning,2.0,46.0,12.0,-1.0,0.0,609.0,0.6091097528412739,-1.0,612.0,-0.5662293824654756,1
47,Pilot,d10012021,arjeO,reward_learning,2.0,47.0,25.0,1.0,142.0,418.0,-0.7174891814855586,1.0,675.0,-0.042768947795121776,1
48,Pilot,d10012021,arjeO,reward_learning,2.0,48.0,5.0,1.0,151.0,502.0,-0.1340634721481035,1.0,705.0,0.20649792585742768,1
49,Pilot,d10012021,arjeO,reward_learning,2.0,49.0,5.0,1.0,151.0,465.0,-0.39104860602293495,1.0,647.0,-0.27541802987083464,1
50,Pilot,d10012021,arjeO,reward_learning,2.0,50.0,56.0,1.0,149.0,494.0,-0.1896278254183373,1.0,691.0,0.09017338481957128,1
51,Pilot,d10012021,arjeO,reward_learning,2.0,51.0,40.0,1.0,152.0,407.0,-0.7938901672321301,1.0,612.0,-0.5662293824654756,1
52,Pilot,d10012021,arjeO,reward_learning,2.0,52.0,47.0,1.0,144.0,470.0,-0.3563208852290388,1.0,578.0,-0.8487318392716984,1
53,Pilot,d10012021,arjeO,reward_learning,2.0,53.0,56.0,1.0,149.0,405.0,-0.8077812555496886,1.0,608.0,-0.599464965619149,1
54,Pilot,d10012021,arjeO,reward_learning,2.0,54.0,36.0,1.0,150.0,580.0,0.40768897223667633,1.0,601.0,-0.6576272361380772,1
55,Pilot,d10012021,arjeO,reward_learning,2.0,55.0,7.0,1.0,143.0,401.0,-0.8355634321848056,1.0,576.0,-0.865349630848535,1
56,Pilot,d10012021,arjeO,reward_learning,2.0,56.0,48.0,-1.0,0.0,436.0,-0.5924693866275326,-1.0,688.0,0.06524669745431633,1
57,Pilot,d10012021,arjeO,reward_learning,2.0,57.0,8.0,-1.0,0.0,582.0,0.42158006055423475,-1.0,765.0,0.7050316731625266,1
58,Pilot,d10012021,arjeO,reward_learning,2.0,58.0,32.0,-1.0,0.0,743.0,1.5398126701176906,-1.0,620.0,-0.49975821615812915,1
59,Pilot,d10012021,arjeO,reward_learning,2.0,59.0,8.0,-1.0,0.0,585.0,0.44241669303057246,-1.0,562.0,-0.9816741718863914,1
60,Pilot,d10012021,arjeO,reward_learning,2.0,60.0,12.0,-1.0,0.0,393.0,-0.8911277854550393,-1.0,701.0,0.17326234270375443,1
61,Pilot,d10012021,arjeO,reward_learning,2.0,61.0,39.0,-1.0,0.0,546.0,0.17154047083818255,-1.0,583.0,-0.8071873603296068,1
62,Pilot,d10012021,arjeO,reward_learning,2.0,62.0,32.0,-1.0,0.0,745.0,1.5537037584352489,-1.0,640.0,-0.33358030038976283,1
63,Pilot,d10012021,arjeO,reward_learning,2.0,63.0,4.0,1.0,153.0,412.0,-0.759162446438234,1.0,697.0,0.14002675955008118,1
64,Pilot,d10012021,arjeO,reward_learning,3.0,64.0,8.0,-1.0,0.0,653.0,0.91471369582756,-1.0,603.0,-0.6410094445612405,1
65,Pilot,d10012021,arjeO,reward_learning,3.0,65.0,8.0,-1.0,0.0,500.0,-0.14795456046566194,-1.0,539.0,-1.1727787750200127,1
66,Pilot,d10012021,arjeO,reward_learning,3.0,66.0,48.0,-1.0,0.0,565.0,0.3035058098549879,-1.0,753.0,0.6053249237015068,1
67,Pilot,d10012021,arjeO,reward_learning,3.0,67.0,4.0,1.0,153.0,467.0,-0.3771575177053765,1.0,671.0,-0.07600453094879504,1
68,Pilot,d10012021,arjeO,reward_learning,3.0,68.0,36.0,1.0,150.0,563.0,0.28961472153742945,1.0,636.0,-0.3668158835434361,1
69,Pilot,d10012021,arjeO,reward_learning,3.0,69.0,40.0,1.0,152.0,465.0,-0.39104860602293495,-1.0,728.0,0.397602528991049,0
70,Pilot,d10012021,arjeO,reward_learning,3.0,70.0,47.0,1.0,144.0,752.0,1.6023225675467037,1.0,484.0,-1.62976804338302,1
71,Pilot,d10012021,arjeO,reward_learning,3.0,71.0,47.0,1.0,144.0,494.0,-0.1896278254183373,1.0,475.0,-1.704548105478785,1
72,Pilot,d10012021,arjeO,reward_learning,3.0,72.0,12.0,-1.0,0.0,652.0,0.9077681516687808,-1.0,622.0,-0.4831404245812925,1
73,Pilot,d10012021,arjeO,reward_learning,3.0,73.0,56.0,1.0,149.0,421.0,-0.696652549009221,1.0,555.0,-1.0398364424053197,1
74,Pilot,d10012021,arjeO,reward_learning,3.0,74.0,25.0,1.0,142.0,515.0,-0.043771398083973526,1.0,616.0,-0.5329937993118024,1
75,Pilot,d10012021,arjeO,reward_learning,3.0,75.0,36.0,1.0,150.0,351.0,-1.182840640123767,1.0,575.0,-0.8736585266369533,1
76,Pilot,d10012021,arjeO,reward_learning,3.0,76.0,7.0,1.0,143.0,510.0,-0.07849911887786967,1.0,537.0,-1.1893965665968493,1
77,Pilot,d10012021,arjeO,reward_learning,3.0,77.0,41.0,-1.0,0.0,636.0,0.7966394451283131,-1.0,646.0,-0.28372692565925295,1
78,Pilot,d10012021,arjeO,reward_learning,3.0,78.0,49.0,-1.0,0.0,486.0,-0.24519217868857116,-1.0,710.0,0.24804240479951928,1
79,Pilot,d10012021,arjeO,reward_learning,3.0,79.0,56.0,1.0,149.0,417.0,-0.7244347256443379,1.0,599.0,-0.6742450277149138,1
80,Pilot,d10012021,arjeO,reward_learning,3.0,80.0,25.0,1.0,142.0,372.0,-1.0369842127894031,1.0,562.0,-0.9816741718863914,1
81,Pilot,d10012021,arjeO,reward_learning,3.0,81.0,39.0,-1.0,0.0,400.0,-0.8425089763435848,-1.0,664.0,-0.13416680146772325,1
82,Pilot,d10012021,arjeO,reward_learning,3.0,82.0,12.0,-1.0,0.0,814.0,2.0329463053910155,-1.0,609.0,-0.5911560698307307,1
83,Pilot,d10012021,arjeO,reward_learning,3.0,83.0,7.0,1.0,143.0,522.0,0.004847411027481073,1.0,703.0,0.18988013428059106,1
84,Pilot,d10012021,arjeO,reward_learning,3.0,84.0,48.0,-1.0,0.0,438.0,-0.5785782983099741,-1.0,533.0,-1.2226321497505226,1
85,Pilot,d10012021,arjeO,reward_learning,3.0,85.0,5.0,1.0,151.0,388.0,-0.9258555062489355,1.0,587.0,-0.7739517771759336,1
86,Pilot,d10012021,arjeO,reward_learning,3.0,86.0,49.0,-1.0,0.0,566.0,0.3104513540137671,-1.0,657.0,-0.19232907198665145,1
87,Pilot,d10012021,arjeO,reward_learning,3.0,87.0,5.0,1.0,151.0,374.0,-1.0230931244718446,1.0,618.0,-0.5163760077349657,1
88,Pilot,d10012021,arjeO,reward_learning,3.0,88.0,4.0,1.0,153.0,563.0,0.28961472153742945,1.0,567.0,-0.9401296929442998,1
89,Pilot,d10012021,arjeO,reward_learning,3.0,89.0,41.0,-1.0,0.0,412.0,-0.759162446438234,-1.0,676.0,-0.03446005200670346,1
90,Pilot,d10012021,arjeO,reward_learning,3.0,90.0,19.0,-1.0,0.0,461.0,-0.41883078265805185,-1.0,963.0,2.350193039269353,1
91,Pilot,d10012021,arjeO,reward_learning,3.0,91.0,40.0,1.0,152.0,370.0,-1.0508753011069616,1.0,611.0,-0.5745382782538939,1
92,Pilot,d10012021,arjeO,reward_learning,3.0,92.0,32.0,-1.0,0.0,454.0,-0.46744959176950646,-1.0,666.0,-0.11754900989088661,1
93,Pilot,d10012021,arjeO,reward_learning,3.0,93.0,32.0,-1.0,0.0,500.0,-0.14795456046566194,-1.0,688.0,0.06524669745431633,1
94,Pilot,d10012021,arjeO,reward_learning,3.0,94.0,39.0,-1.0,0.0,362.0,-1.1064396543771955,-1.0,687.0,0.056937801665898014,1
95,Pilot,d10012021,arjeO,reward_learning,3.0,95.0,19.0,-1.0,0.0,329.0,-1.33564261161691,-1.0,667.0,-0.1092401141024683,1
96,Pilot,d10012021,A26v1,reward_learning,1.0,0.0,40.0,1.0,145.0,909.0,2.2766641909451426,,,,0
97,Pilot,d10012021,A26v1,reward_learning,1.0,1.0,12.0,-1.0,0.0,665.0,0.6816714585180745,-1.0,884.0,0.8563234767845455,1
98,Pilot,d10012021,A26v1,reward_learning,1.0,2.0,2.0,1.0,156.0,628.0,0.4398078064697077,1.0,581.0,-0.3643000390737856,1
99,Pilot,d10012021,A26v1,reward_learning,1.0,3.0,40.0,1.0,145.0,609.0,0.3156075527151409,1.0,1026.0,1.4283648604541264,1
100,Pilot,d10012021,A26v1,reward_learning,1.0,4.0,15.0,1.0,155.0,720.0,1.0411985088602416,1.0,660.0,-0.04605166365197653,1
101,Pilot,d10012021,A26v1,reward_learning,1.0,5.0,4.0,1.0,150.0,598.0,0.2437021426467075,1.0,743.0,0.2883105535633419,1
102,Pilot,d10012021,A26v1,reward_learning,1.0,6.0,2.0,1.0,156.0,487.0,-0.48188881349839313,1.0,520.0,-0.6100361264248028,1
103,Pilot,d10012021,A26v1,reward_learning,1.0,7.0,6.0,1.0,151.0,427.0,-0.8741001411443935,1.0,642.0,-0.11856395172276847,1
104,Pilot,d10012021,A26v1,reward_learning,1.0,8.0,52.0,-1.0,0.0,860.0,1.9563582733675757,-1.0,903.0,0.9328642253037147,1
105,Pilot,d10012021,A26v1,reward_learning,1.0,9.0,25.0,1.0,141.0,618.0,0.37443925186204097,-1.0,953.0,1.1342872477225812,0
106,Pilot,d10012021,A26v1,reward_learning,1.0,10.0,50.0,-1.0,0.0,781.0,1.4399466919670085,1.0,1064.0,1.5814463574924649,0
107,Pilot,d10012021,A26v1,reward_learning,1.0,11.0,48.0,-1.0,0.0,669.0,0.7078188803611413,-1.0,801.0,0.521961259569227,1
108,Pilot,d10012021,A26v1,reward_learning,1.0,12.0,25.0,1.0,141.0,689.0,0.8385559895764747,1.0,1577.0,3.6480465675100353,1
109,Pilot,d10012021,A26v1,reward_learning,1.0,13.0,3.0,1.0,148.0,577.0,0.10642817797060738,1.0,622.0,-0.1991331606903151,1
110,Pilot,d10012021,A26v1,reward_learning,1.0,14.0,3.0,1.0,148.0,704.0,0.9366088214879748,1.0,661.0,-0.042023203203599195,1
111,Pilot,d10012021,A26v1,reward_learning,1.0,15.0,32.0,-1.0,0.0,567.0,0.04105962336294066,-1.0,984.0,1.2591695216222785,1
112,Pilot,d10012021,A26v1,reward_learning,1.0,16.0,48.0,-1.0,0.0,900.0,2.2178324917982426,-1.0,1105.0,1.7466132358759354,1
113,Pilot,d10012021,A26v1,reward_learning,1.0,17.0,7.0,-1.0,0.0,539.0,-0.14197232953852618,-1.0,743.0,0.2883105535633419,1
114,Pilot,d10012021,A26v1,reward_learning,1.0,18.0,27.0,1.0,153.0,739.0,1.1653987626148083,1.0,883.0,0.8522950163361681,1
115,Pilot,d10012021,A26v1,reward_learning,1.0,19.0,29.0,-1.0,0.0,427.0,-0.8741001411443935,-1.0,681.0,0.03854600576394741,1
116,Pilot,d10012021,A26v1,reward_learning,1.0,20.0,52.0,-1.0,0.0,576.0,0.09989132250984072,-1.0,772.0,0.40513590656628445,1
117,Pilot,d10012021,A26v1,reward_learning,1.0,21.0,27.0,1.0,153.0,788.0,1.4857046801923752,1.0,784.0,0.4534774319468124,1
118,Pilot,d10012021,A26v1,reward_learning,1.0,22.0,4.0,1.0,150.0,641.0,0.5247869274596744,1.0,492.0,-0.722833018979368,1
119,Pilot,d10012021,A26v1,reward_learning,1.0,23.0,43.0,-1.0,0.0,688.0,0.832019134115708,-1.0,691.0,0.07883061024772071,1
120,Pilot,d10012021,A26v1,reward_learning,1.0,24.0,7.0,-1.0,0.0,477.0,-0.5472573681060598,-1.0,580.0,-0.36832849952216296,1
121,Pilot,d10012021,A26v1,reward_learning,1.0,25.0,29.0,-1.0,0.0,427.0,-0.8741001411443935,-1.0,691.0,0.07883061024772071,1
122,Pilot,d10012021,A26v1,reward_learning,1.0,26.0,15.0,1.0,155.0,638.0,0.5051763610773744,1.0,1186.0,2.072918532194499,1
123,Pilot,d10012021,A26v1,reward_learning,1.0,27.0,50.0,-1.0,0.0,660.0,0.6489871812142411,-1.0,663.0,-0.033966282306844536,1
124,Pilot,d10012021,A26v1,reward_learning,1.0,28.0,32.0,-1.0,0.0,469.0,-0.5995522117921932,-1.0,581.0,-0.3643000390737856,1
125,Pilot,d10012021,A26v1,reward_learning,1.0,29.0,12.0,-1.0,0.0,327.0,-1.5277856872210607,-1.0,761.0,0.3608228416341338,1
126,Pilot,d10012021,A26v1,reward_learning,1.0,30.0,43.0,-1.0,0.0,669.0,0.7078188803611413,-1.0,591.0,-0.3240154345900123,1
127,Pilot,d10012021,A26v1,reward_learning,1.0,31.0,6.0,1.0,151.0,660.0,0.6489871812142411,1.0,952.0,1.1302587872742038,1
128,Pilot,d10012021,A26v1,reward_learning,2.0,32.0,3.0,1.0,148.0,627.0,0.43327095100894103,1.0,784.0,0.4534774319468124,1
129,Pilot,d10012021,A26v1,reward_learning,2.0,33.0,15.0,1.0,155.0,560.0,-0.0046983648624260455,1.0,399.0,-1.0974798406784596,1
130,Pilot,d10012021,A26v1,reward_learning,2.0,34.0,32.0,-1.0,0.0,406.0,-1.0113741058204937,-1.0,632.0,-0.15884855620654179,1
131,Pilot,d10012021,A26v1,reward_learning,2.0,35.0,27.0,1.0,153.0,346.0,-1.403585433466494,1.0,864.0,0.7757542678169989,1
132,Pilot,d10012021,A26v1,reward_learning,2.0,36.0,25.0,1.0,141.0,447.0,-0.7433630319290601,1.0,823.0,0.6105873894335283,1
133,Pilot,d10012021,A26v1,reward_learning,2.0,37.0,48.0,-1.0,0.0,683.0,0.7993348568118747,-1.0,643.0,-0.11453549127439114,1
134,Pilot,d10012021,A26v1,reward_learning,2.0,38.0,25.0,1.0,141.0,690.0,0.8450928450372414,1.0,601.0,-0.283730830106239,1
135,Pilot,d10012021,A26v1,reward_learning,2.0,39.0,29.0,-1.0,0.0,316.0,-1.5996910972894942,-1.0,600.0,-0.28775929055461635,1
136,Pilot,d10012021,A26v1,reward_learning,2.0,40.0,43.0,-1.0,0.0,538.0,-0.14850918499929283,-1.0,984.0,1.2591695216222785,1
137,Pilot,d10012021,A26v1,reward_learning,2.0,41.0,50.0,-1.0,0.0,526.0,-0.22695145052849292,-1.0,350.0,-1.294874402648949,1
138,Pilot,d10012021,A26v1,reward_learning,2.0,42.0,4.0,1.0,150.0,325.0,-1.540859398142594,1.0,731.0,0.23996902818281393,1
139,Pilot,d10012021,A26v1,reward_learning,2.0,43.0,3.0,1.0,148.0,697.0,0.890850833262608,1.0,480.0,-0.771174544359896,1
140,Pilot,d10012021,A26v1,reward_learning,2.0,44.0,50.0,-1.0,0.0,345.0,-1.4101222889272607,-1.0,622.0,-0.1991331606903151,1
141,Pilot,d10012021,A26v1,reward_learning,2.0,45.0,43.0,-1.0,0.0,598.0,0.2437021426467075,-1.0,530.0,-0.5697515219410294,1
142,Pilot,d10012021,A26v1,reward_learning,2.0,46.0,6.0,1.0,151.0,729.0,1.1000302080071416,1.0,802.0,0.5259897200176044,1
143,Pilot,d10012021,A26v1,reward_learning,2.0,47.0,6.0,1.0,151.0,556.0,-0.030845786705492734,1.0,732.0,0.24399748863119125,1
144,Pilot,d10012021,A26v1,reward_learning,2.0,48.0,40.0,1.0,145.0,456.0,-0.6845313327821599,1.0,500.0,-0.6906053353923494,1
145,Pilot,d10012021,A26v1,reward_learning,2.0,49.0,4.0,1.0,150.0,364.0,-1.2859220351726939,1.0,1508.0,3.3700827965719995,1
146,Pilot,d10012021,A26v1,reward_learning,2.0,50.0,12.0,-1.0,0.0,458.0,-0.6714576218606266,-1.0,531.0,-0.5657230614926522,1
147,Pilot,d10012021,A26v1,reward_learning,2.0,51.0,12.0,-1.0,0.0,627.0,0.43327095100894103,-1.0,319.0,-1.4197566765486462,1
148,Pilot,d10012021,A26v1,reward_learning,2.0,52.0,27.0,1.0,153.0,547.0,-0.08967748585239278,1.0,1537.0,3.486908149574942,1
149,Pilot,d10012021,A26v1,reward_learning,2.0,53.0,2.0,1.0,156.0,385.0,-1.1486480704965938,1.0,390.0,-1.1337359847138557,1
150,Pilot,d10012021,A26v1,reward_learning,2.0,54.0,7.0,-1.0,0.0,366.0,-1.2728483242511606,-1.0,530.0,-0.5697515219410294,1
151,Pilot,d10012021,A26v1,reward_learning,2.0,55.0,52.0,-1.0,0.0,840.0,1.8256211641522422,-1.0,632.0,-0.15884855620654179,1
152,Pilot,d10012021,A26v1,reward_learning,2.0,56.0,32.0,-1.0,0.0,558.0,-0.017772075783959392,-1.0,349.0,-1.2989028630973263,1
153,Pilot,d10012021,A26v1,reward_learning,2.0,57.0,7.0,-1.0,0.0,478.0,-0.5407205126452932,-1.0,288.0,-1.5446389504483433,1
154,Pilot,d10012021,A26v1,reward_learning,2.0,58.0,48.0,-1.0,0.0,406.0,-1.0113741058204937,-1.0,319.0,-1.4197566765486462,1
155,Pilot,d10012021,A26v1,reward_learning,2.0,59.0,15.0,1.0,155.0,456.0,-0.6845313327821599,1.0,481.0,-0.7671460839115186,1
156,Pilot,d10012021,A26v1,reward_learning,2.0,60.0,52.0,-1.0,0.0,589.0,0.18487044349980744,-1.0,278.0,-1.5849235549321166,1
157,Pilot,d10012021,A26v1,reward_learning,2.0,61.0,29.0,-1.0,0.0,384.0,-1.1551849259573603,-1.0,380.0,-1.174020589197629,1
158,Pilot,d10012021,A26v1,reward_learning,2.0,62.0,40.0,1.0,145.0,578.0,0.11296503343137405,-1.0,240.0,-1.7380050519704553,0
159,Pilot,d10012021,A26v1,reward_learning,2.0,63.0,2.0,1.0,156.0,539.0,-0.14197232953852618,1.0,661.0,-0.042023203203599195,1
160,Pilot,d10012021,A26v1,reward_learning,3.0,64.0,43.0,-1.0,0.0,466.0,-0.6191627781744933,-1.0,672.0,0.0022898617285514356,1
161,Pilot,d10012021,A26v1,reward_learning,3.0,65.0,2.0,1.0,156.0,415.0,-0.9525424066735936,1.0,642.0,-0.11856395172276847,1
162,Pilot,d10012021,A26v1,reward_learning,3.0,66.0,48.0,-1.0,0.0,317.0,-1.5931542418287274,-1.0,630.0,-0.16690547710329642,1
163,Pilot,d10012021,A26v1,reward_learning,3.0,67.0,7.0,-1.0,0.0,414.0,-0.9590792621343602,-1.0,631.0,-0.1628770166549191,1
164,Pilot,d10012021,A26v1,reward_learning,3.0,68.0,3.0,1.0,148.0,920.0,2.348569601013576,1.0,490.0,-0.7308899398761226,1
165,Pilot,d10012021,A26v1,reward_learning,3.0,69.0,3.0,1.0,148.0,637.0,0.49863950561660775,1.0,631.0,-0.1628770166549191,1
166,Pilot,d10012021,A26v1,reward_learning,3.0,70.0,6.0,1.0,151.0,667.0,0.6947451694396078,1.0,662.0,-0.03799474275522187,1
167,Pilot,d10012021,A26v1,reward_learning,3.0,71.0,4.0,1.0,150.0,506.0,-0.35768855974382635,1.0,530.0,-0.5697515219410294,1
168,Pilot,d10012021,A26v1,reward_learning,3.0,72.0,52.0,-1.0,0.0,327.0,-1.5277856872210607,-1.0,771.0,0.4011074461179071,1
169,Pilot,d10012021,A26v1,reward_learning,3.0,73.0,40.0,1.0,145.0,314.0,-1.6127648082110275,1.0,723.0,0.20774134459579527,1
170,Pilot,d10012021,A26v1,reward_learning,3.0,74.0,7.0,-1.0,0.0,548.0,-0.08314063039162611,-1.0,722.0,0.20371288414741795,1
171,Pilot,d10012021,A26v1,reward_learning,3.0,75.0,12.0,-1.0,0.0,465.0,-0.6256996336352599,-1.0,913.0,0.9731488297874881,1
172,Pilot,d10012021,A26v1,reward_learning,3.0,76.0,29.0,-1.0,0.0,536.0,-0.16158289592082617,-1.0,964.0,1.1786003126547318,1
173,Pilot,d10012021,A26v1,reward_learning,3.0,77.0,48.0,-1.0,0.0,527.0,-0.22041459506772623,-1.0,661.0,-0.042023203203599195,1
174,Pilot,d10012021,A26v1,reward_learning,3.0,78.0,6.0,1.0,151.0,437.0,-0.8087315865367267,1.0,582.0,-0.36027157862540826,1
175,Pilot,d10012021,A26v1,reward_learning,3.0,79.0,32.0,-1.0,0.0,561.0,0.0018384905983406265,-1.0,611.0,-0.2434462256224657,1
176,Pilot,d10012021,A26v1,reward_learning,3.0,80.0,15.0,1.0,155.0,426.0,-0.8806369966051601,1.0,582.0,-0.36027157862540826,1
177,Pilot,d10012021,A26v1,reward_learning,3.0,81.0,32.0,-1.0,0.0,257.0,-1.9853655694747279,-1.0,521.0,-0.6060076659764254,1
178,Pilot,d10012021,A26v1,reward_learning,3.0,82.0,50.0,-1.0,0.0,566.0,0.03452276790217399,-1.0,521.0,-0.6060076659764254,1
179,Pilot,d10012021,A26v1,reward_learning,3.0,83.0,50.0,-1.0,0.0,407.0,-1.004837250359727,-1.0,450.0,-0.8920283578112159,1
180,Pilot,d10012021,A26v1,reward_learning,3.0,84.0,15.0,1.0,155.0,547.0,-0.08967748585239278,-1.0,379.0,-1.1780490496460063,0
181,Pilot,d10012021,A26v1,reward_learning,3.0,85.0,27.0,1.0,153.0,476.0,-0.5537942235668265,1.0,410.0,-1.053166775746309,1
182,Pilot,d10012021,A26v1,reward_learning,3.0,86.0,12.0,-1.0,0.0,448.0,-0.7368261764682934,-1.0,461.0,-0.8477152928790652,1
183,Pilot,d10012021,A26v1,reward_learning,3.0,87.0,29.0,-1.0,0.0,355.0,-1.3447537343195939,-1.0,470.0,-0.8114591488436693,1
184,Pilot,d10012021,A26v1,reward_learning,3.0,88.0,43.0,-1.0,0.0,749.0,1.2307673172224751,-1.0,512.0,-0.6422638100118214,1
185,Pilot,d10012021,A26v1,reward_learning,3.0,89.0,25.0,1.0,141.0,628.0,0.4398078064697077,1.0,641.0,-0.1225924121711458,1
186,Pilot,d10012021,A26v1,reward_learning,3.0,90.0,25.0,1.0,141.0,599.0,0.2502389981074742,1.0,510.0,-0.650320730908576,1
187,Pilot,d10012021,A26v1,reward_learning,3.0,91.0,52.0,-1.0,0.0,606.0,0.2959969863328409,-1.0,571.0,-0.4045846435575589,1
188,Pilot,d10012021,A26v1,reward_learning,3.0,92.0,4.0,1.0,150.0,820.0,1.6948840549369089,1.0,753.0,0.3285951580471152,1
189,Pilot,d10012021,A26v1,reward_learning,3.0,93.0,40.0,1.0,145.0,860.0,1.9563582733675757,1.0,721.0,0.1996844236990406,1
190,Pilot,d10012021,A26v1,reward_learning,3.0,94.0,27.0,1.0,153.0,736.0,1.1457881962325083,1.0,692.0,0.08285907069609803,1
191,Pilot,d10012021,A26v1,reward_learning,3.0,95.0,2.0,1.0,156.0,739.0,1.1653987626148083,1.0,460.0,-0.8517437533274426,1
192,Pilot,d10012021,eoRdQ,reward_learning,1.0,0.0,21.0,1.0,157.0,1270.0,3.7413831580800148,,,,0
193,Pilot,d10012021,eoRdQ,reward_learning,1.0,1.0,41.0,-1.0,0.0,1402.0,4.319909440604816,-1.0,1204.0,3.176038404932909,1
194,Pilot,d10012021,eoRdQ,reward_learning,1.0,2.0,39.0,1.0,148.0,1036.0,2.715813839058777,1.0,952.0,1.8433881654430513,1
195,Pilot,d10012021,eoRdQ,reward_learning,1.0,3.0,31.0,-1.0,0.0,1536.0,4.907201272864841,-1.0,945.0,1.8063701032349997,1
196,Pilot,d10012021,eoRdQ,reward_learning,1.0,4.0,48.0,-1.0,0.0,427.0,0.04670394468299173,-1.0,715.0,0.5900623449704466,1
197,Pilot,d10012021,eoRdQ,reward_learning,1.0,5.0,40.0,-1.0,0.0,437.0,0.090531693359113,-1.0,634.0,0.16171048227727802,1
198,Pilot,d10012021,eoRdQ,reward_learning,1.0,6.0,52.0,1.0,141.0,688.0,1.190608185129757,1.0,613.0,0.0506562956531232,1
199,Pilot,d10012021,eoRdQ,reward_learning,1.0,7.0,21.0,1.0,157.0,578.0,0.7085029496924229,1.0,616.0,0.06652117945657389,1
200,Pilot,d10012021,eoRdQ,reward_learning,1.0,8.0,35.0,-1.0,0.0,398.0,-0.08039652647775995,-1.0,730.0,0.6693867639877001,1
201,Pilot,d10012021,eoRdQ,reward_learning,1.0,9.0,37.0,1.0,150.0,407.0,-0.04095155266925081,1.0,762.0,0.8386121912245075,1
202,Pilot,d10012021,eoRdQ,reward_learning,1.0,10.0,45.0,1.0,155.0,361.0,-0.24255919657940866,1.0,617.0,0.07180947405772412,1
203,Pilot,d10012021,eoRdQ,reward_learning,1.0,11.0,14.0,1.0,159.0,292.0,-0.5449706624446454,1.0,481.0,-0.6473985916987072,1
204,Pilot,d10012021,eoRdQ,reward_learning,1.0,12.0,41.0,-1.0,0.0,284.0,-0.5800328613855424,-1.0,675.0,0.3785305609244375,1
205,Pilot,d10012021,eoRdQ,reward_learning,1.0,13.0,14.0,1.0,159.0,267.0,-0.6545400341349487,1.0,498.0,-0.5574975834791532,1
206,Pilot,d10012021,eoRdQ,reward_learning,1.0,14.0,56.0,-1.0,0.0,327.0,-0.391573542078221,-1.0,722.0,0.6270804071784983,1
207,Pilot,d10012021,eoRdQ,reward_learning,1.0,15.0,45.0,1.0,155.0,285.0,-0.5756500865179304,1.0,554.0,-0.26135308581474037,1
208,Pilot,d10012021,eoRdQ,reward_learning,1.0,16.0,1.0,-1.0,0.0,434.0,0.07738336875627662,-1.0,698.0,0.5001613367508928,1
209,Pilot,d10012021,eoRdQ,reward_learning,1.0,17.0,37.0,1.0,150.0,339.0,-0.33898024366687546,1.0,448.0,-0.8219123135366648,1
210,Pilot,d10012021,eoRdQ,reward_learning,1.0,18.0,31.0,-1.0,0.0,304.0,-0.4923773640332999,-1.0,715.0,0.5900623449704466,1
211,Pilot,d10012021,eoRdQ,reward_learning,1.0,19.0,39.0,1.0,148.0,321.0,-0.41787019128389374,1.0,458.0,-0.7690293675251625,1
212,Pilot,d10012021,eoRdQ,reward_learning,1.0,20.0,56.0,-1.0,0.0,295.0,-0.5318223378418091,-1.0,554.0,-0.26135308581474037,1
213,Pilot,d10012021,eoRdQ,reward_learning,1.0,21.0,35.0,-1.0,0.0,299.0,-0.5142912383713605,-1.0,609.0,0.029503117248522275,1
214,Pilot,d10012021,eoRdQ,reward_learning,1.0,22.0,48.0,-1.0,0.0,337.0,-0.3477457934020997,-1.0,617.0,0.07180947405772412,1
215,Pilot,d10012021,eoRdQ,reward_learning,1.0,23.0,55.0,1.0,157.0,394.0,-0.09792762594820846,1.0,499.0,-0.552209288878003,1
216,Pilot,d10012021,eoRdQ,reward_learning,1.0,24.0,52.0,1.0,141.0,301.0,-0.5055256886361362,1.0,510.0,-0.4940380482653505,1
217,Pilot,d10012021,eoRdQ,reward_learning,1.0,25.0,33.0,-1.0,0.0,436.0,0.08614891849150087,-1.0,590.0,-0.0709744801733321,1
218,Pilot,d10012021,eoRdQ,reward_learning,1.0,26.0,57.0,1.0,149.0,298.0,-0.5186740132389727,1.0,482.0,-0.642110297097557,1
219,Pilot,d10012021,eoRdQ,reward_learning,1.0,27.0,55.0,1.0,157.0,300.0,-0.5099084635037484,1.0,426.0,-0.9382547947619698,1
220,Pilot,d10012021,eoRdQ,reward_learning,1.0,28.0,57.0,1.0,149.0,323.0,-0.4091046415486695,1.0,459.0,-0.7637410729240123,1
221,Pilot,d10012021,eoRdQ,reward_learning,1.0,29.0,33.0,-1.0,0.0,306.0,-0.48361181429807565,-1.0,705.0,0.5371793989589444,1
222,Pilot,d10012021,eoRdQ,reward_learning,1.0,30.0,1.0,-1.0,0.0,312.0,-0.4573151650924029,-1.0,657.0,0.28334125810373334,1
223,Pilot,d10012021,eoRdQ,reward_learning,1.0,31.0,40.0,-1.0,0.0,330.0,-0.3784252174753846,-1.0,530.0,-0.3882721562423459,1
224,Pilot,d10012021,eoRdQ,reward_learning,2.0,32.0,48.0,-1.0,0.0,457.0,0.17818719071135555,-1.0,630.0,0.14055730387267712,1
225,Pilot,d10012021,eoRdQ,reward_learning,2.0,33.0,1.0,-1.0,0.0,524.0,0.47183310684136803,-1.0,594.0,-0.04982130176873118,1
226,Pilot,d10012021,eoRdQ,reward_learning,2.0,34.0,41.0,-1.0,0.0,320.0,-0.42225296615150587,-1.0,682.0,0.4155486231324891,1
227,Pilot,d10012021,eoRdQ,reward_learning,2.0,35.0,52.0,1.0,141.0,283.0,-0.5844156362531546,1.0,521.0,-0.435866807652698,1
228,Pilot,d10012021,eoRdQ,reward_learning,2.0,36.0,41.0,-1.0,0.0,278.0,-0.6063295105912152,-1.0,586.0,-0.09212765857793302,1
229,Pilot,d10012021,eoRdQ,reward_learning,2.0,37.0,33.0,-1.0,0.0,320.0,-0.42225296615150587,-1.0,586.0,-0.09212765857793302,1
230,Pilot,d10012021,eoRdQ,reward_learning,2.0,38.0,35.0,-1.0,0.0,314.0,-0.44854961535717863,-1.0,554.0,-0.26135308581474037,1
231,Pilot,d10012021,eoRdQ,reward_learning,2.0,39.0,55.0,1.0,157.0,313.0,-0.45293239022479076,1.0,570.0,-0.1767403721963367,1
232,Pilot,d10012021,eoRdQ,reward_learning,2.0,40.0,1.0,-1.0,0.0,366.0,-0.22064532224134803,-1.0,514.0,-0.4728848698607496,1
233,Pilot,d10012021,eoRdQ,reward_learning,2.0,41.0,57.0,1.0,149.0,293.0,-0.5405878875770334,1.0,474.0,-0.6844166539067588,1
234,Pilot,d10012021,eoRdQ,reward_learning,2.0,42.0,52.0,1.0,141.0,304.0,-0.4923773640332999,1.0,465.0,-0.7320113053171109,1
235,Pilot,d10012021,eoRdQ,reward_learning,2.0,43.0,21.0,1.0,157.0,413.0,-0.01465490346357805,1.0,467.0,-0.7214347161148105,1
236,Pilot,d10012021,eoRdQ,reward_learning,2.0,44.0,39.0,1.0,148.0,498.0,0.35788096028345273,1.0,473.0,-0.6897049485079091,1
237,Pilot,d10012021,eoRdQ,reward_learning,2.0,45.0,45.0,1.0,155.0,270.0,-0.6413917095321122,1.0,460.0,-0.7584527783228621,1
238,Pilot,d10012021,eoRdQ,reward_learning,2.0,46.0,56.0,-1.0,0.0,284.0,-0.5800328613855424,-1.0,584.0,-0.10270424778023349,1
239,Pilot,d10012021,eoRdQ,reward_learning,2.0,47.0,31.0,-1.0,0.0,391.0,-0.11107595055104484,-1.0,765.0,0.8544770750279582,1
240,Pilot,d10012021,eoRdQ,reward_learning,2.0,48.0,14.0,1.0,159.0,350.0,-0.29076972012314206,1.0,426.0,-0.9382547947619698,1
241,Pilot,d10012021,eoRdQ,reward_learning,2.0,49.0,31.0,-1.0,0.0,390.0,-0.11545872541865697,-1.0,665.0,0.32564761491293515,1
242,Pilot,d10012021,eoRdQ,reward_learning,2.0,50.0,33.0,-1.0,0.0,368.0,-0.21187977250612378,-1.0,474.0,-0.6844166539067588,1
243,Pilot,d10012021,eoRdQ,reward_learning,2.0,51.0,55.0,1.0,157.0,345.0,-0.3126835944612027,1.0,416.0,-0.9911377407734722,1
244,Pilot,d10012021,eoRdQ,reward_learning,2.0,52.0,14.0,1.0,159.0,312.0,-0.4573151650924029,1.0,763.0,0.8439004858256577,1
245,Pilot,d10012021,eoRdQ,reward_learning,2.0,53.0,40.0,-1.0,0.0,291.0,-0.5493534373122576,-1.0,595.0,-0.04453300716758095,1
246,Pilot,d10012021,eoRdQ,reward_learning,2.0,54.0,35.0,-1.0,0.0,538.0,0.5331919549879378,-1.0,714.0,0.5847740503692964,1
247,Pilot,d10012021,eoRdQ,reward_learning,2.0,55.0,45.0,1.0,155.0,473.0,0.24831158859314958,1.0,713.0,0.5794857557681462,1
248,Pilot,d10012021,eoRdQ,reward_learning,2.0,56.0,37.0,1.0,150.0,477.0,0.26584268806359806,1.0,442.0,-0.8536420811435662,1
249,Pilot,d10012021,eoRdQ,reward_learning,2.0,57.0,37.0,1.0,150.0,376.0,-0.17681757356522676,1.0,450.0,-0.8113357243343643,1
250,Pilot,d10012021,eoRdQ,reward_learning,2.0,58.0,21.0,1.0,157.0,690.0,1.1993737348649811,1.0,443.0,-0.848353786542416,1
251,Pilot,d10012021,eoRdQ,reward_learning,2.0,59.0,56.0,-1.0,0.0,725.0,1.3527708552314055,-1.0,794.0,1.007837618461315,1
252,Pilot,d10012021,eoRdQ,reward_learning,2.0,60.0,48.0,-1.0,0.0,396.0,-0.0891620762129842,-1.0,771.0,0.8862068426348596,1
253,Pilot,d10012021,eoRdQ,reward_learning,2.0,61.0,40.0,-1.0,0.0,658.0,1.059124939101393,-1.0,1042.0,2.319334679546572,1
254,Pilot,d10012021,eoRdQ,reward_learning,2.0,62.0,57.0,1.0,149.0,607.0,0.8356034208531746,1.0,1410.0,4.2654270927698565,1
255,Pilot,d10012021,eoRdQ,reward_learning,2.0,63.0,39.0,1.0,148.0,601.0,0.8093067716475019,1.0,641.0,0.19872854448532964,1
256,Pilot,d10012021,eoRdQ,reward_learning,3.0,64.0,21.0,1.0,157.0,1021.0,2.6500722160445953,1.0,763.0,0.8439004858256577,1
257,Pilot,d10012021,eoRdQ,reward_learning,3.0,65.0,35.0,-1.0,0.0,280.0,-0.597563960855991,-1.0,653.0,0.2621880796991324,1
258,Pilot,d10012021,eoRdQ,reward_learning,3.0,66.0,39.0,1.0,148.0,489.0,0.3184359864749436,1.0,576.0,-0.14501060458943532,1
259,Pilot,d10012021,eoRdQ,reward_learning,3.0,67.0,37.0,1.0,150.0,314.0,-0.44854961535717863,1.0,578.0,-0.13443401538713487,1
260,Pilot,d10012021,eoRdQ,reward_learning,3.0,68.0,45.0,1.0,155.0,256.0,-0.702750557678682,1.0,459.0,-0.7637410729240123,1
261,Pilot,d10012021,eoRdQ,reward_learning,3.0,69.0,48.0,-1.0,0.0,354.0,-0.27323862065269355,-1.0,608.0,0.024214822647372045,1
262,Pilot,d10012021,eoRdQ,reward_learning,3.0,70.0,35.0,-1.0,0.0,295.0,-0.5318223378418091,-1.0,554.0,-0.26135308581474037,1
263,Pilot,d10012021,eoRdQ,reward_learning,3.0,71.0,57.0,1.0,149.0,349.0,-0.2951524949907542,1.0,433.0,-0.9012367325539182,1
264,Pilot,d10012021,eoRdQ,reward_learning,3.0,72.0,52.0,1.0,141.0,297.0,-0.5230567881065847,1.0,471.0,-0.7002815377102095,1
265,Pilot,d10012021,eoRdQ,reward_learning,3.0,73.0,55.0,1.0,157.0,310.0,-0.46608071482762714,1.0,390.0,-1.1286334004033782,1
266,Pilot,d10012021,eoRdQ,reward_learning,3.0,74.0,41.0,-1.0,0.0,297.0,-0.5230567881065847,-1.0,570.0,-0.1767403721963367,1
267,Pilot,d10012021,eoRdQ,reward_learning,3.0,75.0,40.0,-1.0,0.0,295.0,-0.5318223378418091,-1.0,588.0,-0.08155106937563256,1
268,Pilot,d10012021,eoRdQ,reward_learning,3.0,76.0,45.0,1.0,155.0,311.0,-0.461697939960015,1.0,474.0,-0.6844166539067588,1
269,Pilot,d10012021,eoRdQ,reward_learning,3.0,77.0,1.0,-1.0,0.0,368.0,-0.21187977250612378,-1.0,578.0,-0.13443401538713487,1
270,Pilot,d10012021,eoRdQ,reward_learning,3.0,78.0,31.0,-1.0,0.0,601.0,0.8093067716475019,-1.0,594.0,-0.04982130176873118,1
271,Pilot,d10012021,eoRdQ,reward_learning,3.0,79.0,41.0,-1.0,0.0,325.0,-0.40033909181344524,-1.0,539.0,-0.3406775048319938,1
272,Pilot,d10012021,eoRdQ,reward_learning,3.0,80.0,31.0,-1.0,0.0,314.0,-0.44854961535717863,-1.0,463.0,-0.7425878945194113,1
273,Pilot,d10012021,eoRdQ,reward_learning,3.0,81.0,52.0,1.0,141.0,417.0,0.0028761960068704583,1.0,474.0,-0.6844166539067588,1
274,Pilot,d10012021,eoRdQ,reward_learning,3.0,82.0,55.0,1.0,157.0,331.0,-0.3740424426077725,1.0,394.0,-1.1074802219987772,1
275,Pilot,d10012021,eoRdQ,reward_learning,3.0,83.0,48.0,-1.0,0.0,295.0,-0.5318223378418091,-1.0,466.0,-0.7267230107159607,1
276,Pilot,d10012021,eoRdQ,reward_learning,3.0,84.0,33.0,-1.0,0.0,321.0,-0.41787019128389374,-1.0,672.0,0.3626656771209868,1
277,Pilot,d10012021,eoRdQ,reward_learning,3.0,85.0,1.0,-1.0,0.0,327.0,-0.391573542078221,-1.0,723.0,0.6323687017796485,1
278,Pilot,d10012021,eoRdQ,reward_learning,3.0,86.0,56.0,-1.0,0.0,552.0,0.5945508031345076,-1.0,1475.0,4.609166241844622,1
279,Pilot,d10012021,eoRdQ,reward_learning,3.0,87.0,40.0,-1.0,0.0,304.0,-0.4923773640332999,-1.0,546.0,-0.30365944262394223,1
280,Pilot,d10012021,eoRdQ,reward_learning,3.0,88.0,39.0,1.0,148.0,309.0,-0.47046348969523927,1.0,475.0,-0.6791283593056086,1
281,Pilot,d10012021,eoRdQ,reward_learning,3.0,89.0,57.0,1.0,149.0,312.0,-0.4573151650924029,1.0,434.0,-0.895948437952768,1
282,Pilot,d10012021,eoRdQ,reward_learning,3.0,90.0,37.0,1.0,150.0,307.0,-0.4792290394304635,1.0,404.0,-1.054597275987275,1
283,Pilot,d10012021,eoRdQ,reward_learning,3.0,91.0,21.0,1.0,157.0,319.0,-0.426635741019118,1.0,441.0,-0.8589303757447164,1
284,Pilot,d10012021,eoRdQ,reward_learning,3.0,92.0,14.0,1.0,159.0,305.0,-0.4879945891656878,1.0,474.0,-0.6844166539067588,1
285,Pilot,d10012021,eoRdQ,reward_learning,3.0,93.0,56.0,-1.0,0.0,281.0,-0.5931811859883789,-1.0,588.0,-0.08155106937563256,1
286,Pilot,d10012021,eoRdQ,reward_learning,3.0,94.0,33.0,-1.0,0.0,302.0,-0.5011429137685242,-1.0,691.0,0.46314327454284115,1
287,Pilot,d10012021,eoRdQ,reward_learning,3.0,95.0,14.0,1.0,159.0,262.0,-0.6764539084730092,1.0,418.0,-0.9805611515711717,1
288,Pilot,d10012021,lPMys,reward_learning,1.0,0.0,37.0,-1.0,0.0,1485.0,5.301451673196646,,,,0
289,Pilot,d10012021,lPMys,reward_learning,1.0,1.0,22.0,-1.0,0.0,790.0,1.4620050931250026,-1.0,774.0,2.3307492178284877,1
290,Pilot,d10012021,lPMys,reward_learning,1.0,2.0,7.0,1.0,142.0,744.0,1.207883448976376,,,,0
291,Pilot,d10012021,lPMys,reward_learning,1.0,3.0,28.0,-1.0,0.0,829.0,1.6774560522944906,-1.0,836.0,2.9155940659084165,1
292,Pilot,d10012021,lPMys,reward_learning,1.0,4.0,0.0,-1.0,0.0,857.0,1.832138792211046,-1.0,586.0,0.5573487107474137,1
293,Pilot,d10012021,lPMys,reward_learning,1.0,5.0,47.0,1.0,143.0,507.0,-0.1013954567458966,1.0,523.0,-0.03692911875315901,1
294,Pilot,d10012021,lPMys,reward_learning,1.0,6.0,57.0,1.0,142.0,569.0,0.24111632449790465,1.0,523.0,-0.03692911875315901,1
295,Pilot,d10012021,lPMys,reward_learning,1.0,7.0,31.0,1.0,144.0,645.0,0.6609694756999837,1.0,561.0,0.32152417523131344,1
296,Pilot,d10012021,lPMys,reward_learning,1.0,8.0,55.0,1.0,157.0,506.0,-0.10691984031434501,1.0,487.0,-0.3765164498963434,1
297,Pilot,d10012021,lPMys,reward_learning,1.0,9.0,59.0,1.0,154.0,444.0,-0.44943162155814625,1.0,750.0,2.1043576637330315,1
298,Pilot,d10012021,lPMys,reward_learning,1.0,10.0,24.0,1.0,150.0,481.0,-0.2450294295255552,1.0,500.0,-0.2538876914279713,1
299,Pilot,d10012021,lPMys,reward_learning,1.0,11.0,24.0,1.0,150.0,657.0,0.7272620785213645,1.0,473.0,-0.5085781897853596,1
300,Pilot,d10012021,lPMys,reward_learning,1.0,12.0,41.0,-1.0,0.0,668.0,0.788030297774297,-1.0,824.0,2.8023982888606884,1
301,Pilot,d10012021,lPMys,reward_learning,1.0,13.0,13.0,-1.0,0.0,595.0,0.38475029727756327,-1.0,437.0,-0.848165520928544,1
302,Pilot,d10012021,lPMys,reward_learning,1.0,14.0,28.0,-1.0,0.0,494.0,-0.1732124431357259,-1.0,524.0,-0.027496137332515,1
303,Pilot,d10012021,lPMys,reward_learning,1.0,15.0,1.0,1.0,149.0,405.0,-0.6648825807276342,1.0,623.0,0.9063690233112421,1
304,Pilot,d10012021,lPMys,reward_learning,1.0,16.0,47.0,1.0,143.0,469.0,-0.31132203234693606,1.0,436.0,-0.857598502349188,1
305,Pilot,d10012021,lPMys,reward_learning,1.0,17.0,0.0,-1.0,0.0,393.0,-0.731175183549015,-1.0,636.0,1.0289977817796143,1
306,Pilot,d10012021,lPMys,reward_learning,1.0,18.0,55.0,1.0,157.0,368.0,-0.8692847727602252,1.0,548.0,0.19889541676294129,1
307,Pilot,d10012021,lPMys,reward_learning,1.0,19.0,7.0,1.0,142.0,366.0,-0.880333539897122,1.0,436.0,-0.857598502349188,1
308,Pilot,d10012021,lPMys,reward_learning,1.0,20.0,37.0,-1.0,0.0,408.0,-0.6483094300222889,-1.0,549.0,0.20832839818358528,1
309,Pilot,d10012021,lPMys,reward_learning,1.0,21.0,31.0,1.0,144.0,531.0,0.031189748896865176,1.0,600.0,0.6894104506364299,1
310,Pilot,d10012021,lPMys,reward_learning,1.0,22.0,22.0,-1.0,0.0,496.0,-0.16216367599882908,-1.0,499.0,-0.26332067284861527,1
311,Pilot,d10012021,lPMys,reward_learning,1.0,23.0,13.0,-1.0,0.0,516.0,-0.05167600462986093,-1.0,625.0,0.9252349861525302,1
312,Pilot,d10012021,lPMys,reward_learning,1.0,24.0,43.0,-1.0,0.0,497.0,-0.15663929243038066,-1.0,611.0,0.793173246263514,1
313,Pilot,d10012021,lPMys,reward_learning,1.0,25.0,57.0,1.0,142.0,506.0,-0.10691984031434501,1.0,711.0,1.736471388327915,1
314,Pilot,d10012021,lPMys,reward_learning,1.0,26.0,59.0,1.0,154.0,490.0,-0.19530997740951953,1.0,524.0,-0.027496137332515,1
315,Pilot,d10012021,lPMys,reward_learning,1.0,27.0,41.0,-1.0,0.0,345.0,-0.9963455948345386,-1.0,562.0,0.33095715665195746,1
316,Pilot,d10012021,lPMys,reward_learning,1.0,28.0,23.0,-1.0,0.0,355.0,-0.9411017591500546,-1.0,524.0,-0.027496137332515,1
317,Pilot,d10012021,lPMys,reward_learning,1.0,29.0,43.0,-1.0,0.0,469.0,-0.31132203234693606,-1.0,623.0,0.9063690233112421,1
318,Pilot,d10012021,lPMys,reward_learning,1.0,30.0,23.0,-1.0,0.0,494.0,-0.1732124431357259,-1.0,512.0,-0.14069191438024314,1
319,Pilot,d10012021,lPMys,reward_learning,1.0,31.0,1.0,1.0,149.0,545.0,0.10853111885514288,1.0,461.0,-0.6217739668330877,1
320,Pilot,d10012021,lPMys,reward_learning,2.0,32.0,23.0,-1.0,0.0,1383.0,4.737964549214908,-1.0,462.0,-0.6123409854124438,1
321,Pilot,d10012021,lPMys,reward_learning,2.0,33.0,37.0,-1.0,0.0,656.0,0.7217376949529161,-1.0,485.0,-0.3953824127376314,1
322,Pilot,d10012021,lPMys,reward_learning,2.0,34.0,28.0,-1.0,0.0,608.0,0.4565672836673925,-1.0,349.0,-1.678267885945217,1
323,Pilot,d10012021,lPMys,reward_learning,2.0,35.0,57.0,1.0,142.0,580.0,0.3018845437508371,1.0,511.0,-0.15012489580088714,1
324,Pilot,d10012021,lPMys,reward_learning,2.0,36.0,1.0,1.0,149.0,544.0,0.10300673528669448,1.0,547.0,0.18946243534229726,1
325,Pilot,d10012021,lPMys,reward_learning,2.0,37.0,43.0,-1.0,0.0,515.0,-0.05720038819830934,-1.0,524.0,-0.027496137332515,1
326,Pilot,d10012021,lPMys,reward_learning,2.0,38.0,22.0,-1.0,0.0,380.0,-0.8029921699388444,-1.0,461.0,-0.6217739668330877,1
327,Pilot,d10012021,lPMys,reward_learning,2.0,39.0,7.0,1.0,142.0,519.0,-0.03510285392451571,1.0,662.0,1.2742552987163587,1
328,Pilot,d10012021,lPMys,reward_learning,2.0,40.0,24.0,1.0,150.0,395.0,-0.7201264164121183,1.0,586.0,0.5573487107474137,1
329,Pilot,d10012021,lPMys,reward_learning,2.0,41.0,1.0,1.0,149.0,355.0,-0.9411017591500546,1.0,439.0,-0.829299558087256,1
330,Pilot,d10012021,lPMys,reward_learning,2.0,42.0,55.0,1.0,157.0,469.0,-0.31132203234693606,1.0,436.0,-0.857598502349188,1
331,Pilot,d10012021,lPMys,reward_learning,2.0,43.0,0.0,-1.0,0.0,507.0,-0.1013954567458966,-1.0,423.0,-0.9802272608175602,1
332,Pilot,d10012021,lPMys,reward_learning,2.0,44.0,37.0,-1.0,0.0,413.0,-0.6206875121800469,-1.0,425.0,-0.9613612979762721,1
333,Pilot,d10012021,lPMys,reward_learning,2.0,45.0,59.0,1.0,154.0,495.0,-0.16768805956727748,1.0,498.0,-0.2727536542692593,1
334,Pilot,d10012021,lPMys,reward_learning,2.0,46.0,55.0,1.0,157.0,355.0,-0.9411017591500546,1.0,612.0,0.802606227684158,1
335,Pilot,d10012021,lPMys,reward_learning,2.0,47.0,41.0,-1.0,0.0,368.0,-0.8692847727602252,-1.0,486.0,-0.38594943131698745,1
336,Pilot,d10012021,lPMys,reward_learning,2.0,48.0,13.0,-1.0,0.0,679.0,0.8487985170272294,-1.0,385.0,-1.3386805548020326,1
337,Pilot,d10012021,lPMys,reward_learning,2.0,49.0,22.0,-1.0,0.0,616.0,0.5007623522149798,-1.0,424.0,-0.9707942793969161,1
338,Pilot,d10012021,lPMys,reward_learning,2.0,50.0,47.0,1.0,143.0,419.0,-0.5875412107693564,1.0,475.0,-0.48971222694407157,1
339,Pilot,d10012021,lPMys,reward_learning,2.0,51.0,28.0,-1.0,0.0,479.0,-0.256078196662452,-1.0,537.0,0.09513262113585715,1
340,Pilot,d10012021,lPMys,reward_learning,2.0,52.0,59.0,1.0,154.0,582.0,0.31293331088773396,1.0,525.0,-0.018063155911870986,1
341,Pilot,d10012021,lPMys,reward_learning,2.0,53.0,7.0,1.0,142.0,481.0,-0.2450294295255552,1.0,334.0,-1.8197626072548772,1
342,Pilot,d10012021,lPMys,reward_learning,2.0,54.0,41.0,-1.0,0.0,427.0,-0.5433461422217691,-1.0,474.0,-0.49914520836471554,1
343,Pilot,d10012021,lPMys,reward_learning,2.0,55.0,24.0,1.0,150.0,843.0,1.7547974222527682,1.0,424.0,-0.9707942793969161,1
344,Pilot,d10012021,lPMys,reward_learning,2.0,56.0,13.0,-1.0,0.0,493.0,-0.1787368267041743,-1.0,336.0,-1.8008966444135892,1
345,Pilot,d10012021,lPMys,reward_learning,2.0,57.0,47.0,1.0,143.0,431.0,-0.5212486079479756,1.0,414.0,-1.0651240936033564,1
346,Pilot,d10012021,lPMys,reward_learning,2.0,58.0,31.0,1.0,144.0,445.0,-0.44390723798969783,1.0,624.0,0.9158020047318861,1
347,Pilot,d10012021,lPMys,reward_learning,2.0,59.0,0.0,-1.0,0.0,459.0,-0.36656586803142016,-1.0,561.0,0.32152417523131344,1
348,Pilot,d10012021,lPMys,reward_learning,2.0,60.0,43.0,-1.0,0.0,367.0,-0.8748091563286736,-1.0,475.0,-0.48971222694407157,1
349,Pilot,d10012021,lPMys,reward_learning,2.0,61.0,57.0,1.0,142.0,496.0,-0.16216367599882908,1.0,424.0,-0.9707942793969161,1
350,Pilot,d10012021,lPMys,reward_learning,2.0,62.0,31.0,1.0,144.0,407.0,-0.6538338135907373,1.0,437.0,-0.848165520928544,1
351,Pilot,d10012021,lPMys,reward_learning,2.0,63.0,23.0,-1.0,0.0,456.0,-0.38313901873676537,-1.0,499.0,-0.26332067284861527,1
352,Pilot,d10012021,lPMys,reward_learning,3.0,64.0,1.0,1.0,149.0,910.0,2.1249311213388116,1.0,673.0,1.3780180943434428,1
353,Pilot,d10012021,lPMys,reward_learning,3.0,65.0,24.0,1.0,150.0,532.0,0.03671413246531358,1.0,411.0,-1.0934230378652883,1
354,Pilot,d10012021,lPMys,reward_learning,3.0,66.0,41.0,-1.0,0.0,393.0,-0.731175183549015,-1.0,474.0,-0.49914520836471554,1
355,Pilot,d10012021,lPMys,reward_learning,3.0,67.0,47.0,1.0,143.0,329.0,-1.084735731929713,1.0,525.0,-0.018063155911870986,1
356,Pilot,d10012021,lPMys,reward_learning,3.0,68.0,37.0,-1.0,0.0,520.0,-0.029578470356067303,-1.0,423.0,-0.9802272608175602,1
357,Pilot,d10012021,lPMys,reward_learning,3.0,69.0,43.0,-1.0,0.0,506.0,-0.10691984031434501,-1.0,485.0,-0.3953824127376314,1
358,Pilot,d10012021,lPMys,reward_learning,3.0,70.0,7.0,1.0,142.0,397.0,-0.7090776492752214,1.0,549.0,0.20832839818358528,1
359,Pilot,d10012021,lPMys,reward_learning,3.0,71.0,31.0,1.0,144.0,354.0,-0.9466261427185029,1.0,560.0,0.3120911938106694,1
360,Pilot,d10012021,lPMys,reward_learning,3.0,72.0,28.0,-1.0,0.0,393.0,-0.731175183549015,-1.0,461.0,-0.6217739668330877,1
361,Pilot,d10012021,lPMys,reward_learning,3.0,73.0,7.0,1.0,142.0,320.0,-1.1344551840457489,1.0,474.0,-0.49914520836471554,1
362,Pilot,d10012021,lPMys,reward_learning,3.0,74.0,59.0,1.0,154.0,618.0,0.5118111193518766,1.0,474.0,-0.49914520836471554,1
363,Pilot,d10012021,lPMys,reward_learning,3.0,75.0,55.0,1.0,157.0,408.0,-0.6483094300222889,1.0,623.0,0.9063690233112421,1
364,Pilot,d10012021,lPMys,reward_learning,3.0,76.0,43.0,-1.0,0.0,393.0,-0.731175183549015,-1.0,486.0,-0.38594943131698745,1
365,Pilot,d10012021,lPMys,reward_learning,3.0,77.0,59.0,1.0,154.0,406.0,-0.6593581971591858,1.0,487.0,-0.3765164498963434,1
366,Pilot,d10012021,lPMys,reward_learning,3.0,78.0,0.0,-1.0,0.0,529.0,0.02014098175996836,-1.0,462.0,-0.6123409854124438,1
367,Pilot,d10012021,lPMys,reward_learning,3.0,79.0,22.0,-1.0,0.0,771.0,1.357041805324483,-1.0,873.0,3.264614378472245,1
368,Pilot,d10012021,lPMys,reward_learning,3.0,80.0,13.0,-1.0,0.0,394.0,-0.7256507999805666,-1.0,498.0,-0.2727536542692593,1
369,Pilot,d10012021,lPMys,reward_learning,3.0,81.0,57.0,1.0,142.0,505.0,-0.11244422388279342,1.0,536.0,0.08569963971521313,1
370,Pilot,d10012021,lPMys,reward_learning,3.0,82.0,55.0,1.0,157.0,457.0,-0.37761463516831695,1.0,449.0,-0.7349697438808158,1
371,Pilot,d10012021,lPMys,reward_learning,3.0,83.0,41.0,-1.0,0.0,534.0,0.0477628996022104,-1.0,535.0,0.07626665829456913,1
372,Pilot,d10012021,lPMys,reward_learning,3.0,84.0,23.0,-1.0,0.0,493.0,-0.1787368267041743,-1.0,513.0,-0.13125893295959912,1
373,Pilot,d10012021,lPMys,reward_learning,3.0,85.0,22.0,-1.0,0.0,532.0,0.03671413246531358,-1.0,498.0,-0.2727536542692593,1
374,Pilot,d10012021,lPMys,reward_learning,3.0,86.0,37.0,-1.0,0.0,506.0,-0.10691984031434501,-1.0,737.0,1.9817289052646594,1
375,Pilot,d10012021,lPMys,reward_learning,3.0,87.0,31.0,1.0,144.0,607.0,0.45104290009894416,1.0,350.0,-1.668834904524573,1
376,Pilot,d10012021,lPMys,reward_learning,3.0,88.0,47.0,1.0,143.0,508.0,-0.0958710731774482,1.0,599.0,0.6799774692157858,1
377,Pilot,d10012021,lPMys,reward_learning,3.0,89.0,13.0,-1.0,0.0,495.0,-0.16768805956727748,-1.0,411.0,-1.0934230378652883,1
378,Pilot,d10012021,lPMys,reward_learning,3.0,90.0,28.0,-1.0,0.0,432.0,-0.5157242243795271,-1.0,612.0,0.802606227684158,1
379,Pilot,d10012021,lPMys,reward_learning,3.0,91.0,23.0,-1.0,0.0,446.0,-0.43838285442124947,-1.0,424.0,-0.9707942793969161,1
380,Pilot,d10012021,lPMys,reward_learning,3.0,92.0,0.0,-1.0,0.0,619.0,0.517335502920325,-1.0,598.0,0.6705444877951419,1
381,Pilot,d10012021,lPMys,reward_learning,3.0,93.0,1.0,1.0,149.0,656.0,0.7217376949529161,1.0,637.0,1.0384307632002583,1
382,Pilot,d10012021,lPMys,reward_learning,3.0,94.0,24.0,1.0,150.0,433.0,-0.5101998408110787,1.0,624.0,0.9158020047318861,1
383,Pilot,d10012021,lPMys,reward_learning,3.0,95.0,57.0,1.0,142.0,492.0,-0.1842612102726227,1.0,537.0,0.09513262113585715,1
384,Pilot,d09302021,d1IcC,reward_learning,1.0,0.0,5.0,1.0,160.0,905.0,0.5125693458641218,1.0,1139.0,1.7283209961208368,1
385,Pilot,d09302021,d1IcC,reward_learning,1.0,1.0,44.0,1.0,159.0,915.0,0.5392454041981539,1.0,730.0,0.17239161001622325,1
386,Pilot,d09302021,d1IcC,reward_learning,1.0,2.0,46.0,1.0,141.0,833.0,0.3205017258590904,1.0,722.0,0.1419577833931501,1
387,Pilot,d09302021,d1IcC,reward_learning,1.0,3.0,12.0,1.0,144.0,539.0,-0.46377438916145447,1.0,890.0,0.7810681424776857,1
388,Pilot,d09302021,d1IcC,reward_learning,1.0,4.0,10.0,-1.0,0.0,539.0,-0.46377438916145447,-1.0,1025.0,1.2946389667420446,1
389,Pilot,d09302021,d1IcC,reward_learning,1.0,5.0,13.0,-1.0,0.0,1160.0,1.1928088333819413,-1.0,626.0,-0.22324813608372737,1
390,Pilot,d09302021,d1IcC,reward_learning,1.0,6.0,19.0,1.0,150.0,818.0,0.2804876383580422,1.0,638.0,-0.17759739614911768,1
391,Pilot,d09302021,d1IcC,reward_learning,1.0,7.0,33.0,-1.0,0.0,619.0,-0.25036592248919737,-1.0,626.0,-0.22324813608372737,1
392,Pilot,d09302021,d1IcC,reward_learning,1.0,8.0,10.0,-1.0,0.0,643.0,-0.18634338248752022,-1.0,942.0,0.978888015527661,1
393,Pilot,d09302021,d1IcC,reward_learning,1.0,9.0,29.0,-1.0,0.0,868.0,0.4138679300282029,-1.0,1548.0,3.28425038222545,1
394,Pilot,d09302021,d1IcC,reward_learning,1.0,10.0,13.0,-1.0,0.0,821.0,0.28849045585825184,-1.0,626.0,-0.22324813608372737,1
395,Pilot,d09302021,d1IcC,reward_learning,1.0,11.0,22.0,1.0,155.0,673.0,-0.10631520748542382,1.0,737.0,0.1990212083114122,1
396,Pilot,d09302021,d1IcC,reward_learning,1.0,12.0,44.0,1.0,159.0,1183.0,1.2541637675502153,1.0,494.0,-0.7254062753644339,1
397,Pilot,d09302021,d1IcC,reward_learning,1.0,13.0,46.0,1.0,141.0,649.0,-0.17033774748710095,1.0,416.0,-1.0221360849393968,1
398,Pilot,d09302021,d1IcC,reward_learning,1.0,14.0,25.0,-1.0,0.0,776.0,0.16844819335510722,-1.0,582.0,-0.39063418251062954,1
399,Pilot,d09302021,d1IcC,reward_learning,1.0,15.0,19.0,1.0,150.0,959.0,0.6566200608678954,1.0,611.0,-0.28031156100198945,1
400,Pilot,d09302021,d1IcC,reward_learning,1.0,16.0,54.0,-1.0,0.0,827.0,0.30449609085867113,-1.0,622.0,-0.23846504939526394,1
401,Pilot,d09302021,d1IcC,reward_learning,1.0,17.0,29.0,-1.0,0.0,1054.0,0.9100426150412007,-1.0,587.0,-0.37161304087120883,1
402,Pilot,d09302021,d1IcC,reward_learning,1.0,18.0,27.0,-1.0,0.0,1403.0,1.8410370508989222,-1.0,545.0,-0.5313906306423427,1
403,Pilot,d09302021,d1IcC,reward_learning,1.0,19.0,3.0,1.0,149.0,1131.0,1.1154482642132482,1.0,1220.0,2.036463490679452,1
404,Pilot,d09302021,d1IcC,reward_learning,1.0,20.0,3.0,1.0,149.0,950.0,0.6326116083672664,1.0,574.0,-0.4210680091337027,1
405,Pilot,d09302021,d1IcC,reward_learning,1.0,21.0,23.0,-1.0,0.0,591.0,-0.32505888582448733,-1.0,544.0,-0.5351948589702269,1
406,Pilot,d09302021,d1IcC,reward_learning,1.0,22.0,27.0,-1.0,0.0,610.0,-0.2743743749898263,-1.0,530.0,-0.5884540555606048,1
407,Pilot,d09302021,d1IcC,reward_learning,1.0,23.0,45.0,1.0,158.0,1037.0,0.8646933158733461,1.0,551.0,-0.5085652606750379,1
408,Pilot,d09302021,d1IcC,reward_learning,1.0,24.0,45.0,1.0,158.0,1104.0,1.0434229067113614,1.0,422.0,-0.999310714972092,1
409,Pilot,d09302021,d1IcC,reward_learning,1.0,25.0,54.0,-1.0,0.0,806.0,0.24847636835720363,-1.0,425.0,-0.9878980299884396,1
410,Pilot,d09302021,d1IcC,reward_learning,1.0,26.0,22.0,1.0,155.0,148.0,-1.506808270022111,1.0,715.0,0.11532818509796113,1
411,Pilot,d09302021,d1IcC,reward_learning,1.0,27.0,5.0,1.0,160.0,1068.0,0.9473890967088456,1.0,732.0,0.1800000666719915,1
412,Pilot,d09302021,d1IcC,reward_learning,1.0,28.0,23.0,-1.0,0.0,767.0,0.14443974085447828,-1.0,1152.0,1.7777759643833304,1
413,Pilot,d09302021,d1IcC,reward_learning,1.0,29.0,25.0,-1.0,0.0,1318.0,1.6142905550596491,-1.0,638.0,-0.17759739614911768,1
414,Pilot,d09302021,d1IcC,reward_learning,1.0,30.0,33.0,-1.0,0.0,830.0,0.3124989083588808,-1.0,577.0,-0.40965532415005024,1
415,Pilot,d09302021,d1IcC,reward_learning,1.0,31.0,12.0,1.0,144.0,668.0,-0.11965323665243989,1.0,627.0,-0.21944390775584324,1
416,Pilot,d09302021,d1IcC,reward_learning,2.0,32.0,25.0,-1.0,0.0,1442.0,1.9450736784016476,-1.0,1115.0,1.6370195162516172,1
417,Pilot,d09302021,d1IcC,reward_learning,2.0,33.0,10.0,-1.0,0.0,864.0,0.40319750669459004,-1.0,724.0,0.1495662400489184,1
418,Pilot,d09302021,d1IcC,reward_learning,2.0,34.0,5.0,1.0,160.0,488.0,-0.5998222866650184,1.0,644.0,-0.15477202618181285,1
419,Pilot,d09302021,d1IcC,reward_learning,2.0,35.0,22.0,1.0,155.0,99.0,-1.6375209558588686,1.0,1084.0,1.519088438087209,1
420,Pilot,d09302021,d1IcC,reward_learning,2.0,36.0,19.0,1.0,150.0,514.0,-0.5304645349965348,1.0,613.0,-0.2727031043462212,1
421,Pilot,d09302021,d1IcC,reward_learning,2.0,37.0,3.0,1.0,149.0,1016.0,0.8086735933718785,1.0,516.0,-0.6417132521509828,1
422,Pilot,d09302021,d1IcC,reward_learning,2.0,38.0,10.0,-1.0,0.0,568.0,-0.38641381999276125,-1.0,779.0,0.3587987980825461,1
423,Pilot,d09302021,d1IcC,reward_learning,2.0,39.0,46.0,1.0,141.0,525.0,-0.5011208708290995,1.0,644.0,-0.15477202618181285,1
424,Pilot,d09302021,d1IcC,reward_learning,2.0,40.0,54.0,-1.0,0.0,617.0,-0.2557011341560038,-1.0,464.0,-0.8395331252009581,1
425,Pilot,d09302021,d1IcC,reward_learning,2.0,41.0,13.0,-1.0,0.0,574.0,-0.370408184992342,-1.0,896.0,0.8038935124449905,1
426,Pilot,d09302021,d1IcC,reward_learning,2.0,42.0,5.0,1.0,160.0,717.0,0.011059449184317591,1.0,433.0,-0.9574642033653665,1
427,Pilot,d09302021,d1IcC,reward_learning,2.0,43.0,44.0,1.0,159.0,597.0,-0.3090532508240681,1.0,492.0,-0.7330147320202022,1
428,Pilot,d09302021,d1IcC,reward_learning,2.0,44.0,19.0,1.0,150.0,418.0,-0.7865546950032434,1.0,532.0,-0.5808455989048366,1
429,Pilot,d09302021,d1IcC,reward_learning,2.0,45.0,29.0,-1.0,0.0,682.0,-0.0823067549847949,-1.0,522.0,-0.618887882183678,1
430,Pilot,d09302021,d1IcC,reward_learning,2.0,46.0,13.0,-1.0,0.0,533.0,-0.47978002416187376,-1.0,604.0,-0.30694115929717847,1
431,Pilot,d09302021,d1IcC,reward_learning,2.0,47.0,3.0,1.0,149.0,368.0,-0.919934986673404,1.0,719.0,0.13054509840949768,1
432,Pilot,d09302021,d1IcC,reward_learning,2.0,48.0,22.0,1.0,155.0,319.0,-1.0506476725101614,1.0,1031.0,1.3174643367093495,1
433,Pilot,d09302021,d1IcC,reward_learning,2.0,49.0,46.0,1.0,141.0,449.0,-0.7038589141677437,1.0,576.0,-0.41345955247793437,1
434,Pilot,d09302021,d1IcC,reward_learning,2.0,50.0,33.0,-1.0,0.0,777.0,0.17111579918851041,-1.0,861.0,0.6707455209690456,1
435,Pilot,d09302021,d1IcC,reward_learning,2.0,51.0,23.0,-1.0,0.0,982.0,0.7179749950361692,-1.0,1064.0,1.4430038715295261,1
436,Pilot,d09302021,d1IcC,reward_learning,2.0,52.0,27.0,-1.0,0.0,2728.0,5.375614780158181,-1.0,710.0,0.09630704345854042,1
437,Pilot,d09302021,d1IcC,reward_learning,2.0,53.0,45.0,1.0,158.0,76.0,-1.6988758900271426,1.0,1231.0,2.0783100022861776,1
438,Pilot,d09302021,d1IcC,reward_learning,2.0,54.0,44.0,1.0,159.0,1585.0,2.3265413125783074,1.0,793.0,0.4120579946729241,1
439,Pilot,d09302021,d1IcC,reward_learning,2.0,55.0,25.0,-1.0,0.0,805.0,0.2458087625238004,-1.0,712.0,0.10391550011430871,1
440,Pilot,d09302021,d1IcC,reward_learning,2.0,56.0,29.0,-1.0,0.0,960.0,0.6592876667012986,,,,0
441,Pilot,d09302021,d1IcC,reward_learning,2.0,57.0,23.0,-1.0,0.0,1016.0,0.8086735933718785,-1.0,492.0,-0.7330147320202022,1
442,Pilot,d09302021,d1IcC,reward_learning,2.0,58.0,33.0,-1.0,0.0,629.0,-0.22368986415516523,-1.0,409.0,-1.0487656832345857,1
443,Pilot,d09302021,d1IcC,reward_learning,2.0,59.0,27.0,-1.0,0.0,489.0,-0.5971546808316152,-1.0,434.0,-0.9536599750374823,1
444,Pilot,d09302021,d1IcC,reward_learning,2.0,60.0,54.0,-1.0,0.0,514.0,-0.5304645349965348,-1.0,671.0,-0.05205786132894105,1
445,Pilot,d09302021,d1IcC,reward_learning,2.0,61.0,12.0,1.0,144.0,681.0,-0.0849743608181981,1.0,628.0,-0.21563967942795909,1
446,Pilot,d09302021,d1IcC,reward_learning,2.0,62.0,45.0,1.0,158.0,592.0,-0.32239127999108413,1.0,438.0,-0.9384430617259458,1
447,Pilot,d09302021,d1IcC,reward_learning,2.0,63.0,12.0,1.0,144.0,359.0,-0.943943439174033,1.0,597.0,-0.33357075759236743,1
448,Pilot,d09302021,d1IcC,reward_learning,3.0,64.0,54.0,-1.0,0.0,1450.0,1.9664145250688734,-1.0,541.0,-0.5466075439538793,1
449,Pilot,d09302021,d1IcC,reward_learning,3.0,65.0,5.0,1.0,160.0,710.0,-0.0076137916495049055,1.0,595.0,-0.34117921424813574,1
450,Pilot,d09302021,d1IcC,reward_learning,3.0,66.0,45.0,1.0,158.0,803.0,0.24047355085699398,1.0,422.0,-0.999310714972092,1
451,Pilot,d09302021,d1IcC,reward_learning,3.0,67.0,46.0,1.0,141.0,525.0,-0.5011208708290995,1.0,607.0,-0.295528474313526,1
452,Pilot,d09302021,d1IcC,reward_learning,3.0,68.0,25.0,-1.0,0.0,900.0,0.49923131669710574,-1.0,580.0,-0.39824263916639785,1
453,Pilot,d09302021,d1IcC,reward_learning,3.0,69.0,27.0,-1.0,0.0,697.0,-0.04229266748374669,-1.0,329.0,-1.353103949465317,1
454,Pilot,d09302021,d1IcC,reward_learning,3.0,70.0,45.0,1.0,158.0,1468.0,2.014431430070131,1.0,1584.0,3.4212026020292794,1
455,Pilot,d09302021,d1IcC,reward_learning,3.0,71.0,3.0,1.0,149.0,537.0,-0.4691096008282609,1.0,279.0,-1.543315365859524,1
456,Pilot,d09302021,d1IcC,reward_learning,3.0,72.0,23.0,-1.0,0.0,847.0,0.3578482075267354,-1.0,723.0,0.14576201172103426,1
457,Pilot,d09302021,d1IcC,reward_learning,3.0,73.0,3.0,1.0,149.0,600.0,-0.30105043332385845,1.0,787.0,0.38923262470561926,1
458,Pilot,d09302021,d1IcC,reward_learning,3.0,74.0,54.0,-1.0,0.0,246.0,-1.2453828983485962,-1.0,583.0,-0.3868299541827454,1
459,Pilot,d09302021,d1IcC,reward_learning,3.0,75.0,13.0,-1.0,0.0,478.0,-0.6264983449990505,-1.0,509.0,-0.6683428504461718,1
460,Pilot,d09302021,d1IcC,reward_learning,3.0,76.0,44.0,1.0,159.0,510.0,-0.5411349583301477,1.0,440.0,-0.9308346050701775,1
461,Pilot,d09302021,d1IcC,reward_learning,3.0,77.0,10.0,-1.0,0.0,158.0,-1.4801322116880788,-1.0,645.0,-0.1509677978539287,1
462,Pilot,d09302021,d1IcC,reward_learning,3.0,78.0,12.0,1.0,144.0,490.0,-0.594487074998212,1.0,507.0,-0.6759513071019401,1
463,Pilot,d09302021,d1IcC,reward_learning,3.0,79.0,33.0,-1.0,0.0,466.0,-0.6585096149998891,-1.0,984.0,1.138665605298795,1
464,Pilot,d09302021,d1IcC,reward_learning,3.0,80.0,25.0,-1.0,0.0,60.0,-1.741557583361594,-1.0,625.0,-0.2270523644116115,1
465,Pilot,d09302021,d1IcC,reward_learning,3.0,81.0,5.0,1.0,160.0,573.0,-0.3730757908257452,1.0,940.0,0.9712795588718928,1
466,Pilot,d09302021,d1IcC,reward_learning,3.0,82.0,19.0,1.0,150.0,378.0,-0.8932589283393719,1.0,899.0,0.815306197428643,1
467,Pilot,d09302021,d1IcC,reward_learning,3.0,83.0,22.0,1.0,155.0,588.0,-0.333061703324697,1.0,399.0,-1.0868079665134271,1
468,Pilot,d09302021,d1IcC,reward_learning,3.0,84.0,23.0,-1.0,0.0,491.0,-0.5918194691648088,-1.0,513.0,-0.6531259371346353,1
469,Pilot,d09302021,d1IcC,reward_learning,3.0,85.0,13.0,-1.0,0.0,622.0,-0.24236310498898772,-1.0,514.0,-0.6493217088067511,1
470,Pilot,d09302021,d1IcC,reward_learning,3.0,86.0,10.0,-1.0,0.0,588.0,-0.333061703324697,-1.0,774.0,0.3397776564431254,1
471,Pilot,d09302021,d1IcC,reward_learning,3.0,87.0,12.0,1.0,144.0,524.0,-0.5037884766625027,1.0,1670.0,3.748366238227315,1
472,Pilot,d09302021,d1IcC,reward_learning,3.0,88.0,33.0,-1.0,0.0,482.0,-0.6158279216654376,-1.0,560.0,-0.47432720572408066,1
473,Pilot,d09302021,d1IcC,reward_learning,3.0,89.0,19.0,1.0,150.0,290.0,-1.1280082416788548,1.0,512.0,-0.6569301654625194,1
474,Pilot,d09302021,d1IcC,reward_learning,3.0,90.0,22.0,1.0,155.0,420.0,-0.7812194833364369,1.0,521.0,-0.6226921105115621,1
475,Pilot,d09302021,d1IcC,reward_learning,3.0,91.0,29.0,-1.0,0.0,419.0,-0.7838870891698402,-1.0,674.0,-0.04064517634528863,1
476,Pilot,d09302021,d1IcC,reward_learning,3.0,92.0,27.0,-1.0,0.0,553.0,-0.4264279074938095,-1.0,625.0,-0.2270523644116115,1
477,Pilot,d09302021,d1IcC,reward_learning,3.0,93.0,29.0,-1.0,0.0,371.0,-0.9119321691731944,-1.0,492.0,-0.7330147320202022,1
478,Pilot,d09302021,d1IcC,reward_learning,3.0,94.0,44.0,1.0,159.0,509.0,-0.5438025641635509,1.0,381.0,-1.1552840764153418,1
479,Pilot,d09302021,d1IcC,reward_learning,3.0,95.0,46.0,1.0,141.0,486.0,-0.6051574983318249,1.0,590.0,-0.36020035588755644,1
480,Pilot,d10012021,BAWYi,reward_learning,1.0,0.0,23.0,1.0,151.0,869.0,1.6528193002469789,1.0,1255.0,3.246081609548376,1
481,Pilot,d10012021,BAWYi,reward_learning,1.0,1.0,59.0,-1.0,0.0,938.0,2.1345067939702393,-1.0,1079.0,2.353118488823378,1
482,Pilot,d10012021,BAWYi,reward_learning,1.0,2.0,59.0,-1.0,0.0,1190.0,3.893713292785626,-1.0,927.0,1.581923066379062,1
483,Pilot,d10012021,BAWYi,reward_learning,1.0,3.0,22.0,1.0,150.0,842.0,1.464332889659616,1.0,1015.0,2.028404626741561,1
484,Pilot,d10012021,BAWYi,reward_learning,1.0,4.0,49.0,1.0,155.0,852.0,1.5341426713586392,1.0,1079.0,2.353118488823378,1
485,Pilot,d10012021,BAWYi,reward_learning,1.0,5.0,23.0,1.0,151.0,922.0,2.0228111432518023,1.0,1375.0,3.8549201009517837,1
486,Pilot,d10012021,BAWYi,reward_learning,1.0,6.0,0.0,-1.0,0.0,844.0,1.4782948459994207,-1.0,934.0,1.6174386450442606,1
487,Pilot,d10012021,BAWYi,reward_learning,1.0,7.0,31.0,1.0,142.0,811.0,1.2479225663926439,1.0,903.0,1.4601553680983803,1
488,Pilot,d10012021,BAWYi,reward_learning,1.0,8.0,4.0,1.0,144.0,898.0,1.8552676671741464,1.0,871.0,1.2977984370574718,1
489,Pilot,d10012021,BAWYi,reward_learning,1.0,9.0,37.0,1.0,141.0,762.0,0.9058546360674298,1.0,839.0,1.135441506016563,1
490,Pilot,d10012021,BAWYi,reward_learning,1.0,10.0,22.0,1.0,150.0,898.0,1.8552676671741464,1.0,839.0,1.135441506016563,1
491,Pilot,d10012021,BAWYi,reward_learning,1.0,11.0,14.0,-1.0,0.0,787.0,1.080379090314988,-1.0,783.0,0.8513168766949728,1
492,Pilot,d10012021,BAWYi,reward_learning,1.0,12.0,37.0,1.0,141.0,867.0,1.638857343907174,1.0,1023.0,2.068993859501788,1
493,Pilot,d10012021,BAWYi,reward_learning,1.0,13.0,3.0,-1.0,0.0,842.0,1.464332889659616,-1.0,727.0,0.5671922473733826,1
494,Pilot,d10012021,BAWYi,reward_learning,1.0,14.0,39.0,1.0,156.0,643.0,0.0751182338490529,1.0,847.0,1.17603073877679,1
495,Pilot,d10012021,BAWYi,reward_learning,1.0,15.0,33.0,1.0,149.0,747.0,0.8011399635188949,1.0,775.0,0.8107276439347456,1
496,Pilot,d10012021,BAWYi,reward_learning,1.0,16.0,53.0,-1.0,0.0,707.0,0.5219008367228019,-1.0,663.0,0.24247838529156526,1
497,Pilot,d10012021,BAWYi,reward_learning,1.0,17.0,0.0,-1.0,0.0,731.0,0.6894443128004577,-1.0,655.0,0.20188915253133807,1
498,Pilot,d10012021,BAWYi,reward_learning,1.0,18.0,49.0,1.0,155.0,739.0,0.7452921381596763,1.0,759.0,0.7295491784142913,1
499,Pilot,d10012021,BAWYi,reward_learning,1.0,19.0,31.0,1.0,142.0,730.0,0.6824633346305553,1.0,607.0,-0.04164624403002495,1
500,Pilot,d10012021,BAWYi,reward_learning,1.0,20.0,32.0,-1.0,0.0,610.0,-0.1552540457577239,-1.0,671.0,0.2830676180517924,1
501,Pilot,d10012021,BAWYi,reward_learning,1.0,21.0,4.0,1.0,144.0,619.0,-0.09242524222860295,1.0,591.0,-0.12282470955047929,1
502,Pilot,d10012021,BAWYi,reward_learning,1.0,22.0,32.0,-1.0,0.0,602.0,-0.2111018711169425,-1.0,647.0,0.1612999197711109,1
503,Pilot,d10012021,BAWYi,reward_learning,1.0,23.0,13.0,-1.0,0.0,642.0,0.06813725567915058,-1.0,695.0,0.40483531633247394,1
504,Pilot,d10012021,BAWYi,reward_learning,1.0,24.0,33.0,1.0,149.0,634.0,0.012289430319931956,1.0,575.0,-0.20400317507093363,1
505,Pilot,d10012021,BAWYi,reward_learning,1.0,25.0,13.0,-1.0,0.0,426.0,-1.4397540290197521,-1.0,631.0,0.08012145425065657,1
506,Pilot,d10012021,BAWYi,reward_learning,1.0,26.0,39.0,1.0,156.0,610.0,-0.1552540457577239,1.0,519.0,-0.48812780439252385,1
507,Pilot,d10012021,BAWYi,reward_learning,1.0,27.0,3.0,-1.0,0.0,644.0,0.08209921201895523,-1.0,575.0,-0.20400317507093363,1
508,Pilot,d10012021,BAWYi,reward_learning,1.0,28.0,53.0,-1.0,0.0,619.0,-0.09242524222860295,-1.0,647.0,0.1612999197711109,1
509,Pilot,d10012021,BAWYi,reward_learning,1.0,29.0,16.0,-1.0,0.0,715.0,0.5777486620820205,-1.0,671.0,0.2830676180517924,1
510,Pilot,d10012021,BAWYi,reward_learning,1.0,30.0,14.0,-1.0,0.0,739.0,0.7452921381596763,-1.0,655.0,0.20188915253133807,1
511,Pilot,d10012021,BAWYi,reward_learning,1.0,31.0,16.0,-1.0,0.0,578.0,-0.37864534719459836,-1.0,511.0,-0.528717037152751,1
512,Pilot,d10012021,BAWYi,reward_learning,2.0,32.0,39.0,1.0,156.0,613.0,-0.13431111124801692,1.0,703.0,0.4454245490927011,1
513,Pilot,d10012021,BAWYi,reward_learning,2.0,33.0,13.0,-1.0,0.0,627.0,-0.03657741686938433,-1.0,606.0,-0.046719898125053345,1
514,Pilot,d10012021,BAWYi,reward_learning,2.0,34.0,22.0,1.0,150.0,633.0,0.00530845215002963,1.0,606.0,-0.046719898125053345,1
515,Pilot,d10012021,BAWYi,reward_learning,2.0,35.0,4.0,1.0,144.0,554.0,-0.5461888232722542,1.0,582.0,-0.16848759640573485,1
516,Pilot,d10012021,BAWYi,reward_learning,2.0,36.0,0.0,-1.0,0.0,442.0,-1.328058378301315,-1.0,495.0,-0.6098955026732054,1
517,Pilot,d10012021,BAWYi,reward_learning,2.0,37.0,33.0,1.0,149.0,604.0,-0.19713991477713785,1.0,407.0,-1.0563770630357043,1
518,Pilot,d10012021,BAWYi,reward_learning,2.0,38.0,32.0,-1.0,0.0,532.0,-0.6997703430101054,-1.0,519.0,-0.48812780439252385,1
519,Pilot,d10012021,BAWYi,reward_learning,2.0,39.0,59.0,-1.0,0.0,563.0,-0.48336001974313325,-1.0,679.0,0.3236568508120196,1
520,Pilot,d10012021,BAWYi,reward_learning,2.0,40.0,31.0,1.0,142.0,538.0,-0.6578844739906914,1.0,463.0,-0.772252433714114,1
521,Pilot,d10012021,BAWYi,reward_learning,2.0,41.0,23.0,1.0,151.0,419.0,-1.4886208762090682,1.0,559.0,-0.28518164059138795,1
522,Pilot,d10012021,BAWYi,reward_learning,2.0,42.0,0.0,-1.0,0.0,683.0,0.354357360645146,-1.0,511.0,-0.528717037152751,1
523,Pilot,d10012021,BAWYi,reward_learning,2.0,43.0,3.0,-1.0,0.0,570.0,-0.434493172553817,-1.0,542.0,-0.3714337602068707,1
524,Pilot,d10012021,BAWYi,reward_learning,2.0,44.0,32.0,-1.0,0.0,426.0,-1.4397540290197521,-1.0,486.0,-0.6555583895284609,1
525,Pilot,d10012021,BAWYi,reward_learning,2.0,45.0,53.0,-1.0,0.0,402.0,-1.6072975050974079,-1.0,479.0,-0.6910739681936597,1
526,Pilot,d10012021,BAWYi,reward_learning,2.0,46.0,49.0,1.0,155.0,531.0,-0.7067513211800077,1.0,511.0,-0.528717037152751,1
527,Pilot,d10012021,BAWYi,reward_learning,2.0,47.0,14.0,-1.0,0.0,500.0,-0.9231616444469799,-1.0,535.0,-0.40694933887206947,1
528,Pilot,d10012021,BAWYi,reward_learning,2.0,48.0,16.0,-1.0,0.0,627.0,-0.03657741686938433,-1.0,503.0,-0.5693062699129782,1
529,Pilot,d10012021,BAWYi,reward_learning,2.0,49.0,14.0,-1.0,0.0,641.0,0.06115627750924824,-1.0,495.0,-0.6098955026732054,1
530,Pilot,d10012021,BAWYi,reward_learning,2.0,50.0,22.0,1.0,150.0,491.0,-0.9859904479761008,1.0,726.0,0.5621185932783542,1
531,Pilot,d10012021,BAWYi,reward_learning,2.0,51.0,53.0,-1.0,0.0,738.0,0.7383111599897739,-1.0,615.0,-0.001057011269797775,1
532,Pilot,d10012021,BAWYi,reward_learning,2.0,52.0,31.0,1.0,142.0,635.0,0.019270408489834284,1.0,551.0,-0.32577087335161514,1
533,Pilot,d10012021,BAWYi,reward_learning,2.0,53.0,49.0,1.0,155.0,609.0,-0.16223502392762623,1.0,687.0,0.36424608357224675,1
534,Pilot,d10012021,BAWYi,reward_learning,2.0,54.0,59.0,-1.0,0.0,642.0,0.06813725567915058,-1.0,647.0,0.1612999197711109,1
535,Pilot,d10012021,BAWYi,reward_learning,2.0,55.0,33.0,1.0,149.0,538.0,-0.6578844739906914,1.0,471.0,-0.7316632009538868,1
536,Pilot,d10012021,BAWYi,reward_learning,2.0,56.0,23.0,1.0,151.0,689.0,0.39624322966455994,1.0,639.0,0.12071068701088374,1
537,Pilot,d10012021,BAWYi,reward_learning,2.0,57.0,37.0,1.0,141.0,610.0,-0.1552540457577239,1.0,567.0,-0.24459240783116082,1
538,Pilot,d10012021,BAWYi,reward_learning,2.0,58.0,4.0,1.0,144.0,658.0,0.1798329063975878,1.0,591.0,-0.12282470955047929,1
539,Pilot,d10012021,BAWYi,reward_learning,2.0,59.0,16.0,-1.0,0.0,739.0,0.7452921381596763,-1.0,511.0,-0.528717037152751,1
540,Pilot,d10012021,BAWYi,reward_learning,2.0,60.0,37.0,1.0,141.0,531.0,-0.7067513211800077,1.0,479.0,-0.6910739681936597,1
541,Pilot,d10012021,BAWYi,reward_learning,2.0,61.0,13.0,-1.0,0.0,654.0,0.1519089937179785,-1.0,543.0,-0.36636010611184233,1
542,Pilot,d10012021,BAWYi,reward_learning,2.0,62.0,3.0,-1.0,0.0,611.0,-0.14827306758782158,-1.0,495.0,-0.6098955026732054,1
543,Pilot,d10012021,BAWYi,reward_learning,2.0,63.0,39.0,1.0,156.0,570.0,-0.434493172553817,1.0,487.0,-0.6504847354334325,1
544,Pilot,d10012021,BAWYi,reward_learning,3.0,64.0,4.0,1.0,144.0,509.0,-0.8603328409178589,1.0,679.0,0.3236568508120196,1
545,Pilot,d10012021,BAWYi,reward_learning,3.0,65.0,39.0,1.0,156.0,579.0,-0.371664369024696,1.0,422.0,-0.9802722516102783,1
546,Pilot,d10012021,BAWYi,reward_learning,3.0,66.0,32.0,-1.0,0.0,354.0,-1.9423844572527196,-1.0,527.0,-0.44753857163229666,1
547,Pilot,d10012021,BAWYi,reward_learning,3.0,67.0,13.0,-1.0,0.0,595.0,-0.2599687183062588,-1.0,1111.0,2.515475419864287,1
548,Pilot,d10012021,BAWYi,reward_learning,3.0,68.0,31.0,1.0,142.0,505.0,-0.8882567535974683,1.0,415.0,-1.015787830275477,1
549,Pilot,d10012021,BAWYi,reward_learning,3.0,69.0,16.0,-1.0,0.0,410.0,-1.5514496797381894,-1.0,503.0,-0.5693062699129782,1
550,Pilot,d10012021,BAWYi,reward_learning,3.0,70.0,0.0,-1.0,0.0,290.0,-2.3891670601264687,-1.0,551.0,-0.32577087335161514,1
551,Pilot,d10012021,BAWYi,reward_learning,3.0,71.0,22.0,1.0,150.0,482.0,-1.0488192515052217,1.0,399.0,-1.0969662957959314,1
552,Pilot,d10012021,BAWYi,reward_learning,3.0,72.0,49.0,1.0,155.0,539.0,-0.6509034958207891,1.0,383.0,-1.1781447613163858,1
553,Pilot,d10012021,BAWYi,reward_learning,3.0,73.0,33.0,1.0,149.0,714.0,0.5707676839121181,1.0,679.0,0.3236568508120196,1
554,Pilot,d10012021,BAWYi,reward_learning,3.0,74.0,23.0,1.0,151.0,578.0,-0.37864534719459836,1.0,423.0,-0.9751985975152498,1
555,Pilot,d10012021,BAWYi,reward_learning,3.0,75.0,32.0,-1.0,0.0,578.0,-0.37864534719459836,-1.0,543.0,-0.36636010611184233,1
556,Pilot,d10012021,BAWYi,reward_learning,3.0,76.0,59.0,-1.0,0.0,546.0,-0.6020366486314728,-1.0,535.0,-0.40694933887206947,1
557,Pilot,d10012021,BAWYi,reward_learning,3.0,77.0,53.0,-1.0,0.0,627.0,-0.03657741686938433,-1.0,574.0,-0.20907682916596204,1
558,Pilot,d10012021,BAWYi,reward_learning,3.0,78.0,14.0,-1.0,0.0,506.0,-0.8812757754275659,-1.0,463.0,-0.772252433714114,1
559,Pilot,d10012021,BAWYi,reward_learning,3.0,79.0,49.0,1.0,155.0,618.0,-0.09940622039850527,1.0,495.0,-0.6098955026732054,1
560,Pilot,d10012021,BAWYi,reward_learning,3.0,80.0,0.0,-1.0,0.0,482.0,-1.0488192515052217,-1.0,511.0,-0.528717037152751,1
561,Pilot,d10012021,BAWYi,reward_learning,3.0,81.0,3.0,-1.0,0.0,563.0,-0.48336001974313325,-1.0,407.0,-1.0563770630357043,1
562,Pilot,d10012021,BAWYi,reward_learning,3.0,82.0,23.0,1.0,151.0,618.0,-0.09940622039850527,1.0,383.0,-1.1781447613163858,1
563,Pilot,d10012021,BAWYi,reward_learning,3.0,83.0,3.0,-1.0,0.0,620.0,-0.08544426405870062,-1.0,471.0,-0.7316632009538868,1
564,Pilot,d10012021,BAWYi,reward_learning,3.0,84.0,37.0,1.0,141.0,627.0,-0.03657741686938433,1.0,439.0,-0.8940201319947956,1
565,Pilot,d10012021,BAWYi,reward_learning,3.0,85.0,37.0,1.0,141.0,449.0,-1.2791915311119986,1.0,335.0,-1.4216801578777487,1
566,Pilot,d10012021,BAWYi,reward_learning,3.0,86.0,13.0,-1.0,0.0,531.0,-0.7067513211800077,-1.0,399.0,-1.0969662957959314,1
567,Pilot,d10012021,BAWYi,reward_learning,3.0,87.0,4.0,1.0,144.0,530.0,-0.71373229934991,1.0,455.0,-0.8128416664743412,1
568,Pilot,d10012021,BAWYi,reward_learning,3.0,88.0,31.0,1.0,142.0,587.0,-0.3158165436654774,1.0,431.0,-0.9346093647550228,1
569,Pilot,d10012021,BAWYi,reward_learning,3.0,89.0,14.0,-1.0,0.0,531.0,-0.7067513211800077,-1.0,510.0,-0.5337906912477794,1
570,Pilot,d10012021,BAWYi,reward_learning,3.0,90.0,16.0,-1.0,0.0,547.0,-0.5950556704615705,-1.0,455.0,-0.8128416664743412,1
571,Pilot,d10012021,BAWYi,reward_learning,3.0,91.0,53.0,-1.0,0.0,842.0,1.464332889659616,-1.0,582.0,-0.16848759640573485,1
572,Pilot,d10012021,BAWYi,reward_learning,3.0,92.0,59.0,-1.0,0.0,627.0,-0.03657741686938433,-1.0,551.0,-0.32577087335161514,1
573,Pilot,d10012021,BAWYi,reward_learning,3.0,93.0,39.0,1.0,156.0,700.0,0.4730339895334855,1.0,495.0,-0.6098955026732054,1
574,Pilot,d10012021,BAWYi,reward_learning,3.0,94.0,33.0,1.0,149.0,555.0,-0.5392078451023519,1.0,430.0,-0.9396830188500511,1
575,Pilot,d10012021,BAWYi,reward_learning,3.0,95.0,22.0,1.0,150.0,779.0,1.0245312649557694,1.0,471.0,-0.7316632009538868,1
576,Pilot,d10012021,Kmecz,reward_learning,1.0,0.0,33.0,1.0,143.0,841.0,1.6561725206215212,1.0,607.0,-0.6004307541479812,1
577,Pilot,d10012021,Kmecz,reward_learning,1.0,1.0,9.0,-1.0,0.0,765.0,1.018793329227143,-1.0,1061.0,2.1757890600032237,1
578,Pilot,d10012021,Kmecz,reward_learning,1.0,2.0,18.0,-1.0,0.0,844.0,1.6813322255449834,-1.0,660.0,-0.2763346084431049,1
579,Pilot,d10012021,Kmecz,reward_learning,1.0,3.0,4.0,1.0,157.0,526.0,-0.9855964963420197,1.0,902.0,1.2035006228885945,1
580,Pilot,d10012021,Kmecz,reward_learning,1.0,4.0,42.0,-1.0,0.0,664.0,0.17174993013724577,-1.0,1212.0,3.0991573241812675,1
581,Pilot,d10012021,Kmecz,reward_learning,1.0,5.0,18.0,-1.0,0.0,683.0,0.3310947279858403,-1.0,1067.0,2.2124791897056624,1
582,Pilot,d10012021,Kmecz,reward_learning,1.0,6.0,59.0,-1.0,0.0,741.0,0.8175156898394447,-1.0,560.0,-0.8878367701504187,1
583,Pilot,d10012021,Kmecz,reward_learning,1.0,7.0,46.0,1.0,159.0,932.0,2.419350236633211,1.0,732.0,0.16394694798616105,1
584,Pilot,d10012021,Kmecz,reward_learning,1.0,8.0,2.0,1.0,150.0,640.0,-0.029527709250452595,1.0,915.0,1.2829959039105454,1
585,Pilot,d10012021,Kmecz,reward_learning,1.0,9.0,57.0,-1.0,0.0,828.0,1.5471471326198512,-1.0,973.0,1.6376671577007873,1
586,Pilot,d10012021,Kmecz,reward_learning,1.0,10.0,17.0,-1.0,0.0,615.0,-0.23919191694597172,-1.0,442.0,-1.609409320965049,1
587,Pilot,d10012021,Kmecz,reward_learning,1.0,11.0,31.0,1.0,142.0,752.0,0.9097679412254731,1.0,548.0,-0.9612170295552964,1
588,Pilot,d10012021,Kmecz,reward_learning,1.0,12.0,33.0,1.0,143.0,750.0,0.8929948046098315,1.0,1040.0,2.0473736060446877,1
589,Pilot,d10012021,Kmecz,reward_learning,1.0,13.0,37.0,1.0,143.0,601.0,-0.35660387325546244,1.0,903.0,1.2096156445056676,1
590,Pilot,d10012021,Kmecz,reward_learning,1.0,14.0,54.0,1.0,150.0,925.0,2.3606442584784655,1.0,827.0,0.7448740016081092,1
591,Pilot,d10012021,Kmecz,reward_learning,1.0,15.0,19.0,1.0,151.0,649.0,0.04595140551993429,1.0,866.0,0.9833598446739616,1
592,Pilot,d10012021,Kmecz,reward_learning,1.0,16.0,57.0,-1.0,0.0,601.0,-0.35660387325546244,-1.0,975.0,1.6498972009349337,1
593,Pilot,d10012021,Kmecz,reward_learning,1.0,17.0,17.0,-1.0,0.0,703.0,0.4988260941422556,-1.0,713.0,0.047761537261771424,1
594,Pilot,d10012021,Kmecz,reward_learning,1.0,18.0,37.0,1.0,143.0,560.0,-0.7004531738761138,1.0,773.0,0.41466283428615974,1
595,Pilot,d10012021,Kmecz,reward_learning,1.0,19.0,4.0,1.0,157.0,487.0,-1.3126726603470296,1.0,693.0,-0.07453889507969134,1
596,Pilot,d10012021,Kmecz,reward_learning,1.0,20.0,19.0,1.0,151.0,450.0,-1.6229756877363979,1.0,983.0,1.6988173738715189,1
597,Pilot,d10012021,Kmecz,reward_learning,1.0,21.0,43.0,-1.0,0.0,763.0,1.0020201926115015,-1.0,820.0,0.7020688502885972,1
598,Pilot,d10012021,Kmecz,reward_learning,1.0,22.0,42.0,-1.0,0.0,783.0,1.1697515587679168,-1.0,811.0,0.647033655734939,1
599,Pilot,d10012021,Kmecz,reward_learning,1.0,23.0,58.0,-1.0,0.0,732.0,0.7420365750690577,-1.0,646.0,-0.36194491108212884,1
600,Pilot,d10012021,Kmecz,reward_learning,1.0,24.0,58.0,-1.0,0.0,749.0,0.8846082363020108,-1.0,1008.0,1.8516929142983471,1
601,Pilot,d10012021,Kmecz,reward_learning,1.0,25.0,54.0,1.0,150.0,521.0,-1.0275293378811237,1.0,789.0,0.5125031801593299,1
602,Pilot,d10012021,Kmecz,reward_learning,1.0,26.0,59.0,-1.0,0.0,596.0,-0.39853671479456626,-1.0,887.0,1.1117752986324976,1
603,Pilot,d10012021,Kmecz,reward_learning,1.0,27.0,9.0,-1.0,0.0,595.0,-0.406923283102387,-1.0,761.0,0.34128257488128205,1
604,Pilot,d10012021,Kmecz,reward_learning,1.0,28.0,31.0,1.0,142.0,740.0,0.8091291215316239,1.0,801.0,0.5858834395642076,1
605,Pilot,d10012021,Kmecz,reward_learning,1.0,29.0,2.0,1.0,150.0,621.0,-0.18887250709904713,1.0,827.0,0.7448740016081092,1
606,Pilot,d10012021,Kmecz,reward_learning,1.0,30.0,43.0,-1.0,0.0,603.0,-0.3398307366398209,-1.0,700.0,-0.03173374376017937,1
607,Pilot,d10012021,Kmecz,reward_learning,1.0,31.0,46.0,1.0,159.0,591.0,-0.4404695563336701,1.0,742.0,0.22509716415689243,1
608,Pilot,d10012021,Kmecz,reward_learning,2.0,32.0,9.0,-1.0,0.0,816.0,1.446508312926002,-1.0,628.0,-0.4720153001894453,1
609,Pilot,d10012021,Kmecz,reward_learning,2.0,33.0,33.0,1.0,143.0,464.0,-1.5055637314269072,1.0,774.0,0.42077785590323286,1
610,Pilot,d10012021,Kmecz,reward_learning,2.0,34.0,18.0,-1.0,0.0,494.0,-1.2539666821922844,-1.0,754.0,0.2984774235617701,1
611,Pilot,d10012021,Kmecz,reward_learning,2.0,35.0,46.0,1.0,159.0,671.0,0.2304559082919911,1.0,701.0,-0.025618722143106235,1
612,Pilot,d10012021,Kmecz,reward_learning,2.0,36.0,59.0,-1.0,0.0,560.0,-0.7004531738761138,-1.0,727.0,0.13337183990079537,1
613,Pilot,d10012021,Kmecz,reward_learning,2.0,37.0,58.0,-1.0,0.0,606.0,-0.3146710317163586,-1.0,734.0,0.17617699122030733,1
614,Pilot,d10012021,Kmecz,reward_learning,2.0,38.0,58.0,-1.0,0.0,381.0,-2.2016489009760307,-1.0,782.0,0.469698028839818,1
615,Pilot,d10012021,Kmecz,reward_learning,2.0,39.0,18.0,-1.0,0.0,824.0,1.5136008593885681,-1.0,657.0,-0.2946796732943243,1
616,Pilot,d10012021,Kmecz,reward_learning,2.0,40.0,59.0,-1.0,0.0,573.0,-0.5914277858744439,-1.0,648.0,-0.34971486784798256,1
617,Pilot,d10012021,Kmecz,reward_learning,2.0,41.0,54.0,1.0,150.0,564.0,-0.6669069006448307,1.0,848.0,0.8732894555666451,1
618,Pilot,d10012021,Kmecz,reward_learning,2.0,42.0,57.0,-1.0,0.0,739.0,0.8007425532238032,-1.0,812.0,0.6531486773520121,1
619,Pilot,d10012021,Kmecz,reward_learning,2.0,43.0,43.0,-1.0,0.0,597.0,-0.3901501464867455,-1.0,580.0,-0.765536337808956,1
620,Pilot,d10012021,Kmecz,reward_learning,2.0,44.0,46.0,1.0,159.0,784.0,1.1781381270757376,1.0,688.0,-0.10511400316505704,1
621,Pilot,d10012021,Kmecz,reward_learning,2.0,45.0,37.0,1.0,143.0,582.0,-0.515948671104057,1.0,649.0,-0.34359984623090944,1
622,Pilot,d10012021,Kmecz,reward_learning,2.0,46.0,31.0,1.0,142.0,624.0,-0.16371280217558484,1.0,543.0,-0.9917921376406621,1
623,Pilot,d10012021,Kmecz,reward_learning,2.0,47.0,19.0,1.0,151.0,674.0,0.2556156132154534,1.0,690.0,-0.09288395993091075,1
624,Pilot,d10012021,Kmecz,reward_learning,2.0,48.0,2.0,1.0,150.0,658.0,0.12143052029032117,1.0,654.0,-0.3130247381455437,1
625,Pilot,d10012021,Kmecz,reward_learning,2.0,49.0,54.0,1.0,150.0,792.0,1.2452306735383036,1.0,643.0,-0.38028997593334823,1
626,Pilot,d10012021,Kmecz,reward_learning,2.0,50.0,33.0,1.0,143.0,885.0,2.025181526165635,1.0,755.0,0.30459244517884326,1
627,Pilot,d10012021,Kmecz,reward_learning,2.0,51.0,2.0,1.0,150.0,768.0,1.0439530341506054,1.0,942.0,1.4481014875715201,1
628,Pilot,d10012021,Kmecz,reward_learning,2.0,52.0,42.0,-1.0,0.0,785.0,1.1865246953835582,-1.0,620.0,-0.5209354731260304,1
629,Pilot,d10012021,Kmecz,reward_learning,2.0,53.0,57.0,-1.0,0.0,582.0,-0.515948671104057,-1.0,609.0,-0.588200710913835,1
630,Pilot,d10012021,Kmecz,reward_learning,2.0,54.0,19.0,1.0,151.0,556.0,-0.7339994471073968,1.0,623.0,-0.502590408274811,1
631,Pilot,d10012021,Kmecz,reward_learning,2.0,55.0,17.0,-1.0,0.0,694.0,0.4233469793718687,-1.0,585.0,-0.7349612297235902,1
632,Pilot,d10012021,Kmecz,reward_learning,2.0,56.0,31.0,1.0,142.0,484.0,-1.337832365270492,1.0,471.0,-1.4320736940699281,1
633,Pilot,d10012021,Kmecz,reward_learning,2.0,57.0,37.0,1.0,143.0,458.0,-1.5558831412738319,1.0,783.0,0.4758130504568911,1
634,Pilot,d10012021,Kmecz,reward_learning,2.0,58.0,9.0,-1.0,0.0,621.0,-0.18887250709904713,-1.0,627.0,-0.4781303218065185,1
635,Pilot,d10012021,Kmecz,reward_learning,2.0,59.0,17.0,-1.0,0.0,495.0,-1.2455801138844635,-1.0,661.0,-0.27021958682603175,1
636,Pilot,d10012021,Kmecz,reward_learning,2.0,60.0,4.0,1.0,157.0,616.0,-0.23080534863815094,1.0,498.0,-1.2669681104089534,1
637,Pilot,d10012021,Kmecz,reward_learning,2.0,61.0,4.0,1.0,157.0,602.0,-0.34821730494764164,1.0,554.0,-0.9245268998528575,1
638,Pilot,d10012021,Kmecz,reward_learning,2.0,62.0,42.0,-1.0,0.0,799.0,1.303936651693049,-1.0,848.0,0.8732894555666451,1
639,Pilot,d10012021,Kmecz,reward_learning,2.0,63.0,43.0,-1.0,0.0,671.0,0.2304559082919911,-1.0,695.0,-0.06230885184554506,1
640,Pilot,d10012021,Kmecz,reward_learning,3.0,64.0,43.0,-1.0,0.0,714.0,0.591078345528284,-1.0,587.0,-0.722731186489444,1
641,Pilot,d10012021,Kmecz,reward_learning,3.0,65.0,46.0,1.0,159.0,745.0,0.8510619630707277,1.0,589.0,-0.7105011432552978,1
642,Pilot,d10012021,Kmecz,reward_learning,3.0,66.0,54.0,1.0,150.0,553.0,-0.7591591520308592,1.0,588.0,-0.7166161648723709,1
643,Pilot,d10012021,Kmecz,reward_learning,3.0,67.0,58.0,-1.0,0.0,626.0,-0.1469396655599433,-1.0,583.0,-0.7471912729577366,1
644,Pilot,d10012021,Kmecz,reward_learning,3.0,68.0,59.0,-1.0,0.0,697.0,0.448506684295331,-1.0,502.0,-1.2425080239406607,1
645,Pilot,d10012021,Kmecz,reward_learning,3.0,69.0,31.0,1.0,142.0,495.0,-1.2455801138844635,1.0,803.0,0.5981134827983539,1
646,Pilot,d10012021,Kmecz,reward_learning,3.0,70.0,17.0,-1.0,0.0,646.0,0.020791700596471997,-1.0,600.0,-0.6432359054674932,1
647,Pilot,d10012021,Kmecz,reward_learning,3.0,71.0,58.0,-1.0,0.0,648.0,0.037564837212113525,-1.0,767.0,0.3779727045837209,1
648,Pilot,d10012021,Kmecz,reward_learning,3.0,72.0,33.0,1.0,143.0,516.0,-1.0694621794202275,1.0,776.0,0.43300789913737914,1
649,Pilot,d10012021,Kmecz,reward_learning,3.0,73.0,9.0,-1.0,0.0,624.0,-0.16371280217558484,-1.0,694.0,-0.0684238734626182,1
650,Pilot,d10012021,Kmecz,reward_learning,3.0,74.0,17.0,-1.0,0.0,741.0,0.8175156898394447,-1.0,589.0,-0.7105011432552978,1
651,Pilot,d10012021,Kmecz,reward_learning,3.0,75.0,42.0,-1.0,0.0,528.0,-0.9688233597263782,-1.0,856.0,0.9222096285032302,1
652,Pilot,d10012021,Kmecz,reward_learning,3.0,76.0,37.0,1.0,143.0,904.0,2.184526324014229,1.0,550.0,-0.9489869863211501,1
653,Pilot,d10012021,Kmecz,reward_learning,3.0,77.0,57.0,-1.0,0.0,594.0,-0.41530985141020776,-1.0,670.0,-0.21518439227237351,1
654,Pilot,d10012021,Kmecz,reward_learning,3.0,78.0,19.0,1.0,151.0,724.0,0.6749440286064916,1.0,693.0,-0.07453889507969134,1
655,Pilot,d10012021,Kmecz,reward_learning,3.0,79.0,43.0,-1.0,0.0,612.0,-0.264351621869434,-1.0,885.0,1.0995452553983511,1
656,Pilot,d10012021,Kmecz,reward_learning,3.0,80.0,2.0,1.0,150.0,551.0,-0.7759322886465007,1.0,654.0,-0.3130247381455437,1
657,Pilot,d10012021,Kmecz,reward_learning,3.0,81.0,57.0,-1.0,0.0,460.0,-1.5391100046581903,-1.0,807.0,0.6225735692666464,1
658,Pilot,d10012021,Kmecz,reward_learning,3.0,82.0,37.0,1.0,143.0,656.0,0.10465738367467964,1.0,836.0,0.7999091961617675,1
659,Pilot,d10012021,Kmecz,reward_learning,3.0,83.0,54.0,1.0,150.0,693.0,0.41496041106404796,1.0,497.0,-1.2730831320260265,1
660,Pilot,d10012021,Kmecz,reward_learning,3.0,84.0,33.0,1.0,143.0,694.0,0.4233469793718687,,,,0
661,Pilot,d10012021,Kmecz,reward_learning,3.0,85.0,2.0,1.0,150.0,674.0,0.2556156132154534,1.0,464.0,-1.47487884538944,1
662,Pilot,d10012021,Kmecz,reward_learning,3.0,86.0,42.0,-1.0,0.0,639.0,-0.03791427755827336,-1.0,539.0,-1.0162522241089547,1
663,Pilot,d10012021,Kmecz,reward_learning,3.0,87.0,4.0,1.0,157.0,574.0,-0.5830412175666231,1.0,423.0,-1.7255947316894387,1
664,Pilot,d10012021,Kmecz,reward_learning,3.0,88.0,4.0,1.0,157.0,571.0,-0.6082009224900854,1.0,458.0,-1.5115689750918788,1
665,Pilot,d10012021,Kmecz,reward_learning,3.0,89.0,46.0,1.0,159.0,496.0,-1.2371935455766427,1.0,459.0,-1.5054539534748057,1
666,Pilot,d10012021,Kmecz,reward_learning,3.0,90.0,18.0,-1.0,0.0,506.0,-1.153327862498435,-1.0,553.0,-0.9306419214699307,1
667,Pilot,d10012021,Kmecz,reward_learning,3.0,91.0,31.0,1.0,142.0,585.0,-0.49078896618059464,1.0,419.0,-1.7500548181577313,1
668,Pilot,d10012021,Kmecz,reward_learning,3.0,92.0,59.0,-1.0,0.0,539.0,-0.8765711083403498,-1.0,510.0,-1.1935878510040756,1
669,Pilot,d10012021,Kmecz,reward_learning,3.0,93.0,9.0,-1.0,0.0,438.0,-1.7236145074302471,-1.0,470.0,-1.4381887156870012,1
670,Pilot,d10012021,Kmecz,reward_learning,3.0,94.0,19.0,1.0,151.0,632.0,-0.09662025571301872,1.0,518.0,-1.1446676780674905,1
671,Pilot,d10012021,Kmecz,reward_learning,3.0,95.0,18.0,-1.0,0.0,433.0,-1.765547348969351,-1.0,627.0,-0.4781303218065185,1
672,Pilot,d10012021,OH30k,reward_learning,1.0,0.0,33.0,1.0,159.0,930.0,0.9180634407212698,1.0,1134.0,3.8685096784640614,1
673,Pilot,d10012021,OH30k,reward_learning,1.0,1.0,25.0,-1.0,0.0,703.0,0.41710093821230765,-1.0,814.0,1.8550809490926878,1
674,Pilot,d10012021,OH30k,reward_learning,1.0,2.0,5.0,1.0,150.0,527.0,0.02868948252253968,1.0,909.0,2.452817603124814,1
675,Pilot,d10012021,OH30k,reward_learning,1.0,3.0,34.0,1.0,142.0,558.0,0.097102863922442,1.0,686.0,1.0497094573441383,1
676,Pilot,d10012021,OH30k,reward_learning,1.0,4.0,22.0,1.0,140.0,480.0,-0.07503403121279609,1.0,653.0,0.8420746196277153,1
677,Pilot,d10012021,OH30k,reward_learning,1.0,5.0,59.0,1.0,140.0,511.0,-0.006620649812893772,1.0,622.0,0.6470237114698636,1
678,Pilot,d10012021,OH30k,reward_learning,1.0,6.0,14.0,-1.0,0.0,640.0,0.27806729214153847,-1.0,654.0,0.848366584407001,1
679,Pilot,d10012021,OH30k,reward_learning,1.0,7.0,54.0,-1.0,0.0,671.0,0.34648067354144074,-1.0,670.0,0.9490380208755697,1
680,Pilot,d10012021,OH30k,reward_learning,1.0,8.0,59.0,1.0,140.0,511.0,-0.006620649812893772,1.0,557.0,0.23804600081630328,1
681,Pilot,d10012021,OH30k,reward_learning,1.0,9.0,50.0,-1.0,0.0,623.0,0.2405502765351404,-1.0,606.0,0.5463522750012949,1
682,Pilot,d10012021,OH30k,reward_learning,1.0,10.0,50.0,-1.0,0.0,363.0,-0.3332393739156532,-1.0,637.0,0.7414031831591467,1
683,Pilot,d10012021,OH30k,reward_learning,1.0,11.0,22.0,1.0,140.0,511.0,-0.006620649812893772,1.0,525.0,0.0367031278791659,1
684,Pilot,d10012021,OH30k,reward_learning,1.0,12.0,43.0,1.0,157.0,335.0,-0.39503210550266177,1.0,574.0,0.3450094020641575,1
685,Pilot,d10012021,OH30k,reward_learning,1.0,13.0,17.0,-1.0,0.0,352.0,-0.35751508989626374,-1.0,493.0,-0.16463974505797146,1
686,Pilot,d10012021,OH30k,reward_learning,1.0,14.0,25.0,-1.0,0.0,398.0,-0.25599845943189253,-1.0,494.0,-0.15834778027868593,1
687,Pilot,d10012021,OH30k,reward_learning,1.0,15.0,18.0,-1.0,0.0,417.0,-0.21406767728356532,-1.0,493.0,-0.16463974505797146,1
688,Pilot,d10012021,OH30k,reward_learning,1.0,16.0,14.0,-1.0,0.0,464.0,-0.11034416354822954,-1.0,461.0,-0.36598261799510884,1
689,Pilot,d10012021,OH30k,reward_learning,1.0,17.0,5.0,1.0,150.0,543.0,0.06399961485797313,1.0,478.0,-0.2590192167472546,1
690,Pilot,d10012021,OH30k,reward_learning,1.0,18.0,49.0,-1.0,0.0,574.0,0.13241299625787545,-1.0,462.0,-0.3596906532158233,1
691,Pilot,d10012021,OH30k,reward_learning,1.0,19.0,17.0,-1.0,0.0,462.0,-0.11475793009015872,-1.0,429.0,-0.5673254909322462,1
692,Pilot,d10012021,OH30k,reward_learning,1.0,20.0,33.0,1.0,159.0,526.0,0.02648259925157509,1.0,510.0,-0.057676343810117235,1
693,Pilot,d10012021,OH30k,reward_learning,1.0,21.0,18.0,-1.0,0.0,495.0,-0.041930782148327225,-1.0,526.0,0.042995092658451445,1
694,Pilot,d10012021,OH30k,reward_learning,1.0,22.0,43.0,1.0,157.0,577.0,0.13903364607076923,1.0,382.0,-0.8630478355586667,1
695,Pilot,d10012021,OH30k,reward_learning,1.0,23.0,49.0,-1.0,0.0,495.0,-0.041930782148327225,-1.0,413.0,-0.6679969274008148,1
696,Pilot,d10012021,OH30k,reward_learning,1.0,24.0,55.0,1.0,141.0,460.0,-0.1191716966320879,1.0,430.0,-0.5610335261529606,1
697,Pilot,d10012021,OH30k,reward_learning,1.0,25.0,55.0,1.0,141.0,480.0,-0.07503403121279609,1.0,510.0,-0.057676343810117235,1
698,Pilot,d10012021,OH30k,reward_learning,1.0,26.0,54.0,-1.0,0.0,622.0,0.2383433932641758,-1.0,413.0,-0.6679969274008148,1
699,Pilot,d10012021,OH30k,reward_learning,1.0,27.0,2.0,-1.0,0.0,415.0,-0.2184814438254945,-1.0,494.0,-0.15834778027868593,1
700,Pilot,d10012021,OH30k,reward_learning,1.0,28.0,2.0,-1.0,0.0,367.0,-0.32441184083179486,-1.0,589.0,0.43938887375344066,1
701,Pilot,d10012021,OH30k,reward_learning,1.0,29.0,44.0,1.0,143.0,510.0,-0.008827533083858363,1.0,413.0,-0.6679969274008148,1
702,Pilot,d10012021,OH30k,reward_learning,1.0,30.0,34.0,1.0,142.0,430.0,-0.18537819476102563,1.0,398.0,-0.762376399090098,1
703,Pilot,d10012021,OH30k,reward_learning,1.0,31.0,44.0,1.0,143.0,719.0,0.45241107054774116,1.0,605.0,0.5400603102220093,1
704,Pilot,d10012021,OH30k,reward_learning,2.0,32.0,49.0,-1.0,0.0,1090.0,1.2711647640756043,-1.0,493.0,-0.16463974505797146,1
705,Pilot,d10012021,OH30k,reward_learning,2.0,33.0,14.0,-1.0,0.0,446.0,-0.15006806242559217,-1.0,445.0,-0.4666540544636775,1
706,Pilot,d10012021,OH30k,reward_learning,2.0,34.0,17.0,-1.0,0.0,1023.0,1.1233035849209767,-1.0,750.0,1.452395203218413,1
707,Pilot,d10012021,OH30k,reward_learning,2.0,35.0,2.0,-1.0,0.0,534.0,0.044137665419291816,-1.0,398.0,-0.762376399090098,1
708,Pilot,d10012021,OH30k,reward_learning,2.0,36.0,14.0,-1.0,0.0,423.0,-0.20082637765777778,-1.0,382.0,-0.8630478355586667,1
709,Pilot,d10012021,OH30k,reward_learning,2.0,37.0,44.0,1.0,143.0,335.0,-0.39503210550266177,1.0,637.0,0.7414031831591467,1
710,Pilot,d10012021,OH30k,reward_learning,2.0,38.0,33.0,1.0,159.0,334.0,-0.39723898877362634,1.0,350.0,-1.064390708495804,1
711,Pilot,d10012021,OH30k,reward_learning,2.0,39.0,54.0,-1.0,0.0,480.0,-0.07503403121279609,-1.0,414.0,-0.6617049626215293,1
712,Pilot,d10012021,OH30k,reward_learning,2.0,40.0,18.0,-1.0,0.0,415.0,-0.2184814438254945,-1.0,429.0,-0.5673254909322462,1
713,Pilot,d10012021,OH30k,reward_learning,2.0,41.0,25.0,-1.0,0.0,704.0,0.4193078214832723,-1.0,588.0,0.4330969089741551,1
714,Pilot,d10012021,OH30k,reward_learning,2.0,42.0,17.0,-1.0,0.0,589.0,0.16551624532234432,-1.0,397.0,-0.7686683638693835,1
715,Pilot,d10012021,OH30k,reward_learning,2.0,43.0,43.0,1.0,157.0,383.0,-0.2891017084963614,1.0,397.0,-0.7686683638693835,1
716,Pilot,d10012021,OH30k,reward_learning,2.0,44.0,55.0,1.0,141.0,413.0,-0.22289521036742369,1.0,446.0,-0.46036208968439196,1
717,Pilot,d10012021,OH30k,reward_learning,2.0,45.0,59.0,1.0,140.0,656.0,0.3133774244769719,1.0,477.0,-0.26531118152654015,1
718,Pilot,d10012021,OH30k,reward_learning,2.0,46.0,18.0,-1.0,0.0,318.0,-0.4325491211090598,-1.0,429.0,-0.5673254909322462,1
719,Pilot,d10012021,OH30k,reward_learning,2.0,47.0,44.0,1.0,143.0,366.0,-0.32661872410275944,1.0,573.0,0.33871743728487197,1
720,Pilot,d10012021,OH30k,reward_learning,2.0,48.0,50.0,-1.0,0.0,558.0,0.097102863922442,-1.0,766.0,1.5530666396869817,1
721,Pilot,d10012021,OH30k,reward_learning,2.0,49.0,34.0,1.0,142.0,463.0,-0.11255104681919413,1.0,430.0,-0.5610335261529606,1
722,Pilot,d10012021,OH30k,reward_learning,2.0,50.0,2.0,-1.0,0.0,606.0,0.20303326092874235,-1.0,446.0,-0.46036208968439196,1
723,Pilot,d10012021,OH30k,reward_learning,2.0,51.0,55.0,1.0,141.0,321.0,-0.425928471296166,1.0,430.0,-0.5610335261529606,1
724,Pilot,d10012021,OH30k,reward_learning,2.0,52.0,43.0,1.0,157.0,286.0,-0.5031693857799268,1.0,429.0,-0.5673254909322462,1
725,Pilot,d10012021,OH30k,reward_learning,2.0,53.0,54.0,-1.0,0.0,333.0,-0.3994458720445909,-1.0,381.0,-0.8693398003379522,1
726,Pilot,d10012021,OH30k,reward_learning,2.0,54.0,22.0,1.0,140.0,448.0,-0.145654295883663,1.0,382.0,-0.8630478355586667,1
727,Pilot,d10012021,OH30k,reward_learning,2.0,55.0,5.0,1.0,150.0,335.0,-0.39503210550266177,1.0,413.0,-0.6679969274008148,1
728,Pilot,d10012021,OH30k,reward_learning,2.0,56.0,49.0,-1.0,0.0,303.0,-0.4656523701735287,-1.0,446.0,-0.46036208968439196,1
729,Pilot,d10012021,OH30k,reward_learning,2.0,57.0,34.0,1.0,142.0,320.0,-0.42813535456713064,1.0,445.0,-0.4666540544636775,1
730,Pilot,d10012021,OH30k,reward_learning,2.0,58.0,22.0,1.0,140.0,412.0,-0.22510209363838826,1.0,781.0,1.6474461113762648,1
731,Pilot,d10012021,OH30k,reward_learning,2.0,59.0,50.0,-1.0,0.0,388.0,-0.27806729214153847,-1.0,477.0,-0.26531118152654015,1
732,Pilot,d10012021,OH30k,reward_learning,2.0,60.0,33.0,1.0,159.0,591.0,0.1699300118642735,1.0,446.0,-0.46036208968439196,1
733,Pilot,d10012021,OH30k,reward_learning,2.0,61.0,25.0,-1.0,0.0,554.0,0.08827533083858363,-1.0,462.0,-0.3596906532158233,1
734,Pilot,d10012021,OH30k,reward_learning,2.0,62.0,5.0,1.0,150.0,351.0,-0.3597219731672283,-1.0,494.0,-0.15834778027868593,0
735,Pilot,d10012021,OH30k,reward_learning,2.0,63.0,59.0,1.0,140.0,337.0,-0.39061833896073256,1.0,413.0,-0.6679969274008148,1
736,Pilot,d10012021,OH30k,reward_learning,3.0,64.0,59.0,1.0,140.0,419.0,-0.20965391074163614,1.0,366.0,-0.9637192720272354,1
737,Pilot,d10012021,OH30k,reward_learning,3.0,65.0,54.0,-1.0,0.0,319.0,-0.4303422378380952,-1.0,446.0,-0.46036208968439196,1
738,Pilot,d10012021,OH30k,reward_learning,3.0,66.0,17.0,-1.0,0.0,335.0,-0.39503210550266177,-1.0,396.0,-0.7749603286486692,1
739,Pilot,d10012021,OH30k,reward_learning,3.0,67.0,43.0,1.0,157.0,350.0,-0.3619288564381929,1.0,430.0,-0.5610335261529606,1
740,Pilot,d10012021,OH30k,reward_learning,3.0,68.0,43.0,1.0,157.0,304.0,-0.4634454869025641,1.0,318.0,-1.2657335814329413,1
741,Pilot,d10012021,OH30k,reward_learning,3.0,69.0,14.0,-1.0,0.0,353.0,-0.3553082066252991,-1.0,654.0,0.848366584407001,1
742,Pilot,d10012021,OH30k,reward_learning,3.0,70.0,33.0,1.0,159.0,467.0,-0.10372351373533577,1.0,541.0,0.1373745643477346,1
743,Pilot,d10012021,OH30k,reward_learning,3.0,71.0,33.0,1.0,159.0,288.0,-0.49875561923799755,1.0,750.0,1.452395203218413,1
744,Pilot,d10012021,OH30k,reward_learning,3.0,72.0,14.0,-1.0,0.0,4648.0,9.123255442167618,-1.0,462.0,-0.3596906532158233,1
745,Pilot,d10012021,OH30k,reward_learning,3.0,73.0,44.0,1.0,143.0,367.0,-0.32441184083179486,1.0,413.0,-0.6679969274008148,1
746,Pilot,d10012021,OH30k,reward_learning,3.0,74.0,22.0,1.0,140.0,379.0,-0.2979292415802198,1.0,541.0,0.1373745643477346,1
747,Pilot,d10012021,OH30k,reward_learning,3.0,75.0,5.0,1.0,150.0,479.0,-0.07724091448376068,1.0,461.0,-0.36598261799510884,1
748,Pilot,d10012021,OH30k,reward_learning,3.0,76.0,2.0,-1.0,0.0,368.0,-0.3222049575608303,-1.0,654.0,0.848366584407001,1
749,Pilot,d10012021,OH30k,reward_learning,3.0,77.0,59.0,1.0,140.0,321.0,-0.425928471296166,1.0,398.0,-0.762376399090098,1
750,Pilot,d10012021,OH30k,reward_learning,3.0,78.0,49.0,-1.0,0.0,398.0,-0.25599845943189253,-1.0,526.0,0.042995092658451445,1
751,Pilot,d10012021,OH30k,reward_learning,3.0,79.0,22.0,1.0,140.0,320.0,-0.42813535456713064,1.0,398.0,-0.762376399090098,1
752,Pilot,d10012021,OH30k,reward_learning,3.0,80.0,5.0,1.0,150.0,589.0,0.16551624532234432,1.0,685.0,1.0434174925648527,1
753,Pilot,d10012021,OH30k,reward_learning,3.0,81.0,2.0,-1.0,0.0,318.0,-0.4325491211090598,-1.0,510.0,-0.057676343810117235,1
754,Pilot,d10012021,OH30k,reward_learning,3.0,82.0,55.0,1.0,141.0,601.0,0.1919988445739194,1.0,350.0,-1.064390708495804,1
755,Pilot,d10012021,OH30k,reward_learning,3.0,83.0,50.0,-1.0,0.0,304.0,-0.4634454869025641,-1.0,558.0,0.24433796559558882,1
756,Pilot,d10012021,OH30k,reward_learning,3.0,84.0,54.0,-1.0,0.0,304.0,-0.4634454869025641,-1.0,589.0,0.43938887375344066,1
757,Pilot,d10012021,OH30k,reward_learning,3.0,85.0,49.0,-1.0,0.0,303.0,-0.4656523701735287,-1.0,733.0,1.345431801970559,1
758,Pilot,d10012021,OH30k,reward_learning,3.0,86.0,44.0,1.0,143.0,447.0,-0.1478611791546276,1.0,382.0,-0.8630478355586667,1
759,Pilot,d10012021,OH30k,reward_learning,3.0,87.0,50.0,-1.0,0.0,609.0,0.20965391074163614,-1.0,1358.0,5.277909789024023,1
760,Pilot,d10012021,OH30k,reward_learning,3.0,88.0,17.0,-1.0,0.0,847.0,0.7348921292312087,-1.0,462.0,-0.3596906532158233,1
761,Pilot,d10012021,OH30k,reward_learning,3.0,89.0,25.0,-1.0,0.0,526.0,0.02648259925157509,-1.0,461.0,-0.36598261799510884,1
762,Pilot,d10012021,OH30k,reward_learning,3.0,90.0,25.0,-1.0,0.0,461.0,-0.11696481336112331,-1.0,412.0,-0.6742888921801005,1
763,Pilot,d10012021,OH30k,reward_learning,3.0,91.0,34.0,1.0,142.0,400.0,-0.2515846928899634,1.0,493.0,-0.16463974505797146,1
764,Pilot,d10012021,OH30k,reward_learning,3.0,92.0,18.0,-1.0,0.0,557.0,0.0948959806514774,-1.0,430.0,-0.5610335261529606,1
765,Pilot,d10012021,OH30k,reward_learning,3.0,93.0,18.0,-1.0,0.0,480.0,-0.07503403121279609,-1.0,397.0,-0.7686683638693835,1
766,Pilot,d10012021,OH30k,reward_learning,3.0,94.0,34.0,1.0,142.0,366.0,-0.32661872410275944,1.0,493.0,-0.16463974505797146,1
767,Pilot,d10012021,OH30k,reward_learning,3.0,95.0,55.0,1.0,141.0,333.0,-0.3994458720445909,1.0,493.0,-0.16463974505797146,1
768,Pilot,d09302021,c4z0I,reward_learning,1.0,0.0,32.0,1.0,144.0,670.0,2.7152756265467173,1.0,601.0,2.506091362870446,1
769,Pilot,d09302021,c4z0I,reward_learning,1.0,1.0,40.0,-1.0,0.0,590.0,2.1051013284463314,-1.0,491.0,1.4132016336979534,1
770,Pilot,d09302021,c4z0I,reward_learning,1.0,2.0,58.0,-1.0,0.0,280.0,-0.259324076692664,-1.0,472.0,1.224429771386341,1
771,Pilot,d09302021,c4z0I,reward_learning,1.0,3.0,39.0,-1.0,0.0,215.0,-0.7550906938992276,-1.0,458.0,1.0853347149462056,1
772,Pilot,d09302021,c4z0I,reward_learning,1.0,4.0,39.0,-1.0,0.0,216.0,-0.7474635151729727,-1.0,451.0,1.0157871867261379,1
773,Pilot,d09302021,c4z0I,reward_learning,1.0,5.0,41.0,-1.0,0.0,442.0,0.9762788769606174,-1.0,389.0,0.39979479391982364,1
774,Pilot,d09302021,c4z0I,reward_learning,1.0,6.0,31.0,1.0,147.0,236.0,-0.5949199406478762,1.0,332.0,-0.16652079301501355,1
775,Pilot,d09302021,c4z0I,reward_learning,1.0,7.0,17.0,-1.0,0.0,210.0,-0.7932265875305017,-1.0,498.0,1.482749161918021,1
776,Pilot,d09302021,c4z0I,reward_learning,1.0,8.0,17.0,-1.0,0.0,237.0,-0.5872927619216214,-1.0,321.0,-0.2758097659322628,1
777,Pilot,d09302021,c4z0I,reward_learning,1.0,9.0,13.0,1.0,150.0,256.0,-0.44237636612277975,1.0,329.0,-0.1963268765378997,1
778,Pilot,d09302021,c4z0I,reward_learning,1.0,10.0,54.0,1.0,153.0,366.0,0.39661329376525084,1.0,374.0,0.25076437630539283,1
779,Pilot,d09302021,c4z0I,reward_learning,1.0,11.0,32.0,1.0,144.0,211.0,-0.7855994088042468,1.0,377.0,0.280570459828279,1
780,Pilot,d09302021,c4z0I,reward_learning,1.0,12.0,46.0,-1.0,0.0,192.0,-0.9305158046030885,-1.0,416.0,0.6680495456257992,1
781,Pilot,d09302021,c4z0I,reward_learning,1.0,13.0,40.0,-1.0,0.0,192.0,-0.9305158046030885,-1.0,389.0,0.39979479391982364,1
782,Pilot,d09302021,c4z0I,reward_learning,1.0,14.0,47.0,-1.0,0.0,211.0,-0.7855994088042468,-1.0,309.0,-0.3950341000238075,1
783,Pilot,d09302021,c4z0I,reward_learning,1.0,15.0,1.0,1.0,153.0,227.0,-0.6635645491841696,-1.0,358.0,0.09179859751666658,0
784,Pilot,d09302021,c4z0I,reward_learning,1.0,16.0,37.0,-1.0,0.0,295.0,-0.14491639579884164,-1.0,422.0,0.7276617126715715,1
785,Pilot,d09302021,c4z0I,reward_learning,1.0,17.0,48.0,1.0,146.0,210.0,-0.7932265875305017,1.0,406.0,0.5686959338828452,1
786,Pilot,d09302021,c4z0I,reward_learning,1.0,18.0,58.0,-1.0,0.0,217.0,-0.7398363364467179,-1.0,369.0,0.20108757043391587,1
787,Pilot,d09302021,c4z0I,reward_learning,1.0,19.0,48.0,1.0,146.0,251.0,-0.48051225975405387,1.0,691.0,3.400273868557031,1
788,Pilot,d09302021,c4z0I,reward_learning,1.0,20.0,46.0,-1.0,0.0,192.0,-0.9305158046030885,-1.0,418.0,0.68792026797439,1
789,Pilot,d09302021,c4z0I,reward_learning,1.0,21.0,33.0,1.0,144.0,298.0,-0.12203485962007718,1.0,384.0,0.3501179880483467,1
790,Pilot,d09302021,c4z0I,reward_learning,1.0,22.0,33.0,1.0,144.0,234.0,-0.6101742981003859,1.0,310.0,-0.3850987388495121,1
791,Pilot,d09302021,c4z0I,reward_learning,1.0,23.0,13.0,1.0,150.0,239.0,-0.5720384044691118,1.0,372.0,0.23089365395680203,1
792,Pilot,d09302021,c4z0I,reward_learning,1.0,24.0,37.0,-1.0,0.0,235.0,-0.6025471193741311,-1.0,316.0,-0.32548657180373974,1
793,Pilot,d09302021,c4z0I,reward_learning,1.0,25.0,47.0,-1.0,0.0,227.0,-0.6635645491841696,-1.0,440.0,0.9064982138088885,1
794,Pilot,d09302021,c4z0I,reward_learning,1.0,26.0,54.0,1.0,153.0,206.0,-0.823735302435521,1.0,337.0,-0.1168439871435366,1
795,Pilot,d09302021,c4z0I,reward_learning,1.0,27.0,16.0,1.0,144.0,201.0,-0.8618711960667951,1.0,376.0,0.2706350986539836,1
796,Pilot,d09302021,c4z0I,reward_learning,1.0,28.0,1.0,1.0,153.0,221.0,-0.7093276215416986,1.0,268.0,-0.8023839081699184,1
797,Pilot,d09302021,c4z0I,reward_learning,1.0,29.0,31.0,1.0,147.0,224.0,-0.686446085362934,-1.0,283.0,-0.6533534905554876,0
798,Pilot,d09302021,c4z0I,reward_learning,1.0,30.0,16.0,1.0,144.0,222.0,-0.7017004428154437,1.0,357.0,0.08186323634237119,1
799,Pilot,d09302021,c4z0I,reward_learning,1.0,31.0,41.0,-1.0,0.0,238.0,-0.5796655831953665,-1.0,408.0,0.588566656231436,1
800,Pilot,d09302021,c4z0I,reward_learning,2.0,32.0,46.0,-1.0,0.0,1129.0,6.216150661897681,-1.0,701.0,3.499627480299985,1
801,Pilot,d09302021,c4z0I,reward_learning,2.0,33.0,54.0,1.0,153.0,485.0,1.3042475621895748,1.0,473.0,1.2343651325606364,1
802,Pilot,d09302021,c4z0I,reward_learning,2.0,34.0,47.0,-1.0,0.0,226.0,-0.6711917279104245,-1.0,362.0,0.13154004221384816,1
803,Pilot,d09302021,c4z0I,reward_learning,2.0,35.0,1.0,1.0,153.0,532.0,1.6627249623235516,1.0,309.0,-0.3950341000238075,1
804,Pilot,d09302021,c4z0I,reward_learning,2.0,36.0,37.0,-1.0,0.0,421.0,0.8161081237092661,-1.0,322.0,-0.2658744047579674,1
805,Pilot,d09302021,c4z0I,reward_learning,2.0,37.0,48.0,1.0,146.0,513.0,1.5178085665247099,1.0,433.0,0.8369506855888208,1
806,Pilot,d09302021,c4z0I,reward_learning,2.0,38.0,16.0,1.0,144.0,245.0,-0.5262753321115828,1.0,288.0,-0.6036766846840107,1
807,Pilot,d09302021,c4z0I,reward_learning,2.0,39.0,58.0,-1.0,0.0,249.0,-0.4957666172065635,-1.0,191.0,-1.5674067185906635,1
808,Pilot,d09302021,c4z0I,reward_learning,2.0,40.0,41.0,-1.0,0.0,285.0,-0.22118818306138988,-1.0,266.0,-0.8222546305185092,1
809,Pilot,d09302021,c4z0I,reward_learning,2.0,41.0,40.0,-1.0,0.0,276.0,-0.28983279159768327,-1.0,424.0,0.7475324350201623,1
