,Exp,group,PID,phase,condition,block,trial,stimulus_left,stimulus_right,painting_left,painting_right,rating_left,rating_right,explain_trial,explain_response,novel_left,left_chosen,chosen_obj,unchosen_obj,rt,zscored_rt,delta_ratings,zcored_rating_left,zcored_rating_right,zscored_delta_ratings
0,Pilot,d10012021,arjeO,interference,1.0,1.0,0.0,32.0,22.0,Macka1.jpg,Macb1n.jpg,56.0,37.0,1.0,,0.0,1.0,32.0,22.0,2.145,2.3624116559354107,19.0,0.3693372122241616,-0.4594903900111616,0.8288276022353233
1,Pilot,d10012021,arjeO,interference,0.0,1.0,1.0,8.0,35.0,Klina1.jpg,Wdeka1.jpg,57.0,35.0,0.0,,,1.0,8.0,35.0,1.421,0.5204397489315877,22.0,0.4129597176049682,-0.5467354007727746,0.9596951183777428
2,Pilot,d10012021,arjeO,interference,0.0,1.0,2.0,16.0,12.0,Lewa1n.jpg,Kupkc1.jpg,37.0,65.0,0.0,,,0.0,12.0,16.0,1.108,-0.2758823600355345,-28.0,-0.4594903900111616,0.7619397606514201,-1.2214301506625818
3,Pilot,d10012021,arjeO,interference,1.0,1.0,3.0,52.0,41.0,Picaa1.jpg,Vincb1.jpg,67.0,46.0,1.0,,1.0,0.0,41.0,52.0,2.63,3.5963293008205683,21.0,0.8491847714130331,-0.0668878415839032,0.9160726129969362
4,Pilot,d10012021,arjeO,interference,0.0,1.0,4.0,45.0,40.0,Klia1n.jpg,Krab1n.jpg,45.0,29.0,0.0,,,0.0,40.0,45.0,1.827,1.5533687465055546,16.0,-0.1105103469647096,-0.8084704330576135,0.6979600860929038
5,Pilot,d10012021,arjeO,interference,1.0,1.0,5.0,36.0,50.0,Gorkf1.jpg,Gorke1.jpg,26.0,33.0,1.0,,0.0,1.0,36.0,50.0,1.553,0.8562688811477541,-7.0,-0.939337949200033,-0.6339804115343876,-0.3053575376656454
6,Pilot,d10012021,arjeO,interference,1.0,1.0,6.0,39.0,18.0,Dekb1n.jpg,Krasb1.jpg,63.0,57.0,1.0,,0.0,1.0,39.0,18.0,1.133,-0.2122783577218668,6.0,0.6746947498898072,0.4129597176049682,0.2617350322848389
7,Pilot,d10012021,arjeO,interference,1.0,1.0,7.0,56.0,13.0,Luisc1.jpg,Picak1.jpg,44.0,39.0,1.0,,0.0,1.0,56.0,13.0,1.483,0.6781776746694843,5.0,-0.1541328523455161,-0.3722453792495486,0.2181125269040324
8,Pilot,d10012021,arjeO,interference,1.0,1.0,8.0,37.0,47.0,Mondb1.jpg,Kupkd1.jpg,63.0,55.0,1.0,,1.0,0.0,47.0,37.0,1.678,1.1742888927160935,8.0,0.6746947498898072,0.3257147068433552,0.3489800430464519
9,Pilot,d10012021,arjeO,interference,0.0,1.0,9.0,14.0,48.0,Kupkb1.jpg,Picb1n.jpg,43.0,58.0,0.0,,,0.0,48.0,14.0,1.263,0.1184624543092061,-15.0,-0.1977553577263226,0.4565822229857746,-0.6543375807120974
10,Pilot,d10012021,arjeO,interference,0.0,1.0,10.0,21.0,49.0,Lewb1n.jpg,Hinda1.jpg,58.0,66.0,0.0,,,0.0,49.0,21.0,1.132,-0.2148225178144138,-8.0,0.4565822229857746,0.8055622660322266,-0.3489800430464519
11,Pilot,d10012021,arjeO,interference,1.0,1.0,11.0,10.0,4.0,Stera1.jpg,Mackb1.jpg,33.0,46.0,1.0,,1.0,0.0,4.0,10.0,1.176,-0.1028794737423581,-13.0,-0.6339804115343876,-0.0668878415839032,-0.5670925699504844
12,Pilot,d10012021,arjeO,interference,0.0,1.0,12.0,5.0,33.0,Kupb1n.jpg,Kupc1n.jpg,62.0,52.0,0.0,,,1.0,5.0,33.0,1.105,-0.283514840313175,10.0,0.6310722445090006,0.1948471907009357,0.4362250538080648
13,Pilot,d10012021,arjeO,interference,0.0,1.0,13.0,30.0,25.0,Lasse1.jpg,Clifa1.jpg,67.0,65.0,0.0,,,0.0,25.0,30.0,0.904,-0.794891018915065,2.0,0.8491847714130331,0.7619397606514201,0.0872450107616129
14,Pilot,d10012021,arjeO,interference,1.0,1.0,14.0,9.0,19.0,Lassc1.jpg,Macc1n.jpg,65.0,65.0,1.0,,1.0,0.0,19.0,9.0,1.006,-0.5353866894752999,0.0,0.7619397606514201,0.7619397606514201,0.0
15,Pilot,d10012021,arjeO,interference,0.0,1.0,15.0,7.0,57.0,Pica1n.jpg,Lewc1n.jpg,67.0,22.0,0.0,,,1.0,7.0,57.0,0.919,-0.7567286175268642,45.0,0.8491847714130331,-1.113827970723259,1.963012742136292
16,Pilot,d10012021,arjeO,interference,1.0,2.0,16.0,10.0,4.0,Stera1.jpg,Mackb1.jpg,33.0,46.0,0.0,,1.0,0.0,4.0,10.0,0.866,-0.8915691024318403,-13.0,-0.6339804115343876,-0.0668878415839032,-0.5670925699504844
17,Pilot,d10012021,arjeO,interference,1.0,2.0,17.0,39.0,18.0,Dekb1n.jpg,Krasb1.jpg,63.0,57.0,0.0,,0.0,1.0,39.0,18.0,0.85,-0.932275663912588,6.0,0.6746947498898072,0.4129597176049682,0.2617350322848389
18,Pilot,d10012021,arjeO,interference,0.0,2.0,18.0,5.0,33.0,Kupb1n.jpg,Kupc1n.jpg,62.0,52.0,1.0,,,1.0,5.0,33.0,1.078,-0.3522071628119361,10.0,0.6310722445090006,0.1948471907009357,0.4362250538080648
19,Pilot,d10012021,arjeO,interference,0.0,2.0,19.0,14.0,48.0,Kupkb1.jpg,Picb1n.jpg,43.0,58.0,1.0,,,0.0,48.0,14.0,1.428,0.5382488695794145,-15.0,-0.1977553577263226,0.4565822229857746,-0.6543375807120974
20,Pilot,d10012021,arjeO,interference,1.0,2.0,20.0,9.0,19.0,Lassc1.jpg,Macc1n.jpg,65.0,65.0,0.0,,1.0,0.0,19.0,9.0,1.052,-0.4183553252181508,0.0,0.7619397606514201,0.7619397606514201,0.0
21,Pilot,d10012021,arjeO,interference,1.0,2.0,21.0,36.0,50.0,Gorkf1.jpg,Gorke1.jpg,26.0,33.0,0.0,,0.0,1.0,36.0,50.0,1.187,-0.074893712724344,-7.0,-0.939337949200033,-0.6339804115343876,-0.3053575376656454
22,Pilot,d10012021,arjeO,interference,1.0,2.0,22.0,56.0,13.0,Luisc1.jpg,Picak1.jpg,44.0,39.0,0.0,,0.0,1.0,56.0,13.0,1.073,-0.36492796327467,5.0,-0.1541328523455161,-0.3722453792495486,0.2181125269040324
23,Pilot,d10012021,arjeO,interference,0.0,2.0,23.0,45.0,40.0,Klia1n.jpg,Krab1n.jpg,45.0,29.0,1.0,,,0.0,40.0,45.0,2.534,3.3520899319360837,16.0,-0.1105103469647096,-0.8084704330576135,0.6979600860929038
24,Pilot,d10012021,arjeO,interference,0.0,2.0,24.0,8.0,35.0,Klina1.jpg,Wdeka1.jpg,57.0,35.0,1.0,,,1.0,8.0,35.0,1.186,-0.077437872816891,22.0,0.4129597176049682,-0.5467354007727746,0.9596951183777428
25,Pilot,d10012021,arjeO,interference,0.0,2.0,25.0,16.0,12.0,Lewa1n.jpg,Kupkc1.jpg,37.0,65.0,1.0,,,0.0,12.0,16.0,1.044,-0.4387086059585245,-28.0,-0.4594903900111616,0.7619397606514201,-1.2214301506625818
26,Pilot,d10012021,arjeO,interference,1.0,2.0,26.0,37.0,47.0,Mondb1.jpg,Kupkd1.jpg,63.0,55.0,0.0,,1.0,0.0,47.0,37.0,1.148,-0.1741159563336663,8.0,0.6746947498898072,0.3257147068433552,0.3489800430464519
27,Pilot,d10012021,arjeO,interference,1.0,2.0,27.0,32.0,22.0,Macka1.jpg,Macb1n.jpg,56.0,37.0,0.0,,0.0,1.0,32.0,22.0,1.111,-0.2682498797578946,19.0,0.3693372122241616,-0.4594903900111616,0.8288276022353233
28,Pilot,d10012021,arjeO,interference,0.0,2.0,28.0,21.0,49.0,Lewb1n.jpg,Hinda1.jpg,58.0,66.0,1.0,,,0.0,49.0,21.0,0.977,-0.6091673321591548,-8.0,0.4565822229857746,0.8055622660322266,-0.3489800430464519
29,Pilot,d10012021,arjeO,interference,0.0,2.0,29.0,7.0,57.0,Pica1n.jpg,Lewc1n.jpg,67.0,22.0,1.0,,,1.0,7.0,57.0,0.964,-0.6422414133622621,45.0,0.8491847714130331,-1.113827970723259,1.963012742136292
30,Pilot,d10012021,arjeO,interference,1.0,2.0,30.0,52.0,41.0,Picaa1.jpg,Vincb1.jpg,67.0,46.0,0.0,,1.0,0.0,41.0,52.0,1.435,0.5560579902272418,21.0,0.8491847714130331,-0.0668878415839032,0.9160726129969362
31,Pilot,d10012021,arjeO,interference,0.0,2.0,31.0,30.0,25.0,Lasse1.jpg,Clifa1.jpg,67.0,65.0,1.0,,,0.0,25.0,30.0,1.002,-0.5455633298454868,2.0,0.8491847714130331,0.7619397606514201,0.0872450107616129
32,Pilot,d10012021,arjeO,interference,0.0,3.0,32.0,5.0,33.0,Kupb1n.jpg,Kupc1n.jpg,62.0,52.0,0.0,,,1.0,5.0,33.0,1.645,1.0903316096620523,10.0,0.6310722445090006,0.1948471907009357,0.4362250538080648
33,Pilot,d10012021,arjeO,interference,0.0,3.0,33.0,21.0,49.0,Lewb1n.jpg,Hinda1.jpg,58.0,66.0,0.0,,,0.0,49.0,21.0,0.855,-0.9195548634498544,-8.0,0.4565822229857746,0.8055622660322266,-0.3489800430464519
34,Pilot,d10012021,arjeO,interference,1.0,3.0,34.0,39.0,18.0,Dekb1n.jpg,Krasb1.jpg,63.0,57.0,0.0,,0.0,1.0,39.0,18.0,0.996,-0.5608282904007671,6.0,0.6746947498898072,0.4129597176049682,0.2617350322848389
35,Pilot,d10012021,arjeO,interference,0.0,3.0,35.0,45.0,40.0,Klia1n.jpg,Krab1n.jpg,45.0,29.0,0.0,,,0.0,40.0,45.0,1.193,-0.0596287521690636,16.0,-0.1105103469647096,-0.8084704330576135,0.6979600860929038
36,Pilot,d10012021,arjeO,interference,0.0,3.0,36.0,16.0,12.0,Lewa1n.jpg,Kupkc1.jpg,37.0,65.0,0.0,,,0.0,12.0,16.0,0.956,-0.6625946941026358,-28.0,-0.4594903900111616,0.7619397606514201,-1.2214301506625818
37,Pilot,d10012021,arjeO,interference,0.0,3.0,37.0,30.0,25.0,Lasse1.jpg,Clifa1.jpg,67.0,65.0,0.0,,,0.0,25.0,30.0,0.893,-0.822876779933079,2.0,0.8491847714130331,0.7619397606514201,0.0872450107616129
38,Pilot,d10012021,arjeO,interference,0.0,3.0,38.0,14.0,48.0,Kupkb1.jpg,Picb1n.jpg,43.0,58.0,0.0,,,0.0,48.0,14.0,1.229,0.0319610111626182,-15.0,-0.1977553577263226,0.4565822229857746,-0.6543375807120974
39,Pilot,d10012021,arjeO,interference,1.0,3.0,39.0,52.0,41.0,Picaa1.jpg,Vincb1.jpg,67.0,46.0,0.0,,1.0,0.0,41.0,52.0,1.082,-0.3420305224417492,21.0,0.8491847714130331,-0.0668878415839032,0.9160726129969362
40,Pilot,d10012021,arjeO,interference,1.0,3.0,40.0,10.0,4.0,Stera1.jpg,Mackb1.jpg,33.0,46.0,0.0,,1.0,0.0,4.0,10.0,1.015,-0.5124892486423798,-13.0,-0.6339804115343876,-0.0668878415839032,-0.5670925699504844
41,Pilot,d10012021,arjeO,interference,1.0,3.0,41.0,36.0,50.0,Gorkf1.jpg,Gorke1.jpg,26.0,33.0,0.0,,0.0,1.0,36.0,50.0,1.08,-0.3471188426268426,-7.0,-0.939337949200033,-0.6339804115343876,-0.3053575376656454
42,Pilot,d10012021,arjeO,interference,1.0,3.0,42.0,9.0,19.0,Lassc1.jpg,Macc1n.jpg,65.0,65.0,0.0,,1.0,0.0,19.0,9.0,0.949,-0.680403814750463,0.0,0.7619397606514201,0.7619397606514201,0.0
43,Pilot,d10012021,arjeO,interference,1.0,3.0,43.0,37.0,47.0,Mondb1.jpg,Kupkd1.jpg,63.0,55.0,0.0,,1.0,0.0,47.0,37.0,1.203,-0.0341871512435964,8.0,0.6746947498898072,0.3257147068433552,0.3489800430464519
44,Pilot,d10012021,arjeO,interference,0.0,3.0,44.0,8.0,35.0,Klina1.jpg,Wdeka1.jpg,57.0,35.0,0.0,,,1.0,8.0,35.0,0.902,-0.7999793391001584,22.0,0.4129597176049682,-0.5467354007727746,0.9596951183777428
45,Pilot,d10012021,arjeO,interference,1.0,3.0,45.0,56.0,13.0,Luisc1.jpg,Picak1.jpg,44.0,39.0,0.0,,0.0,1.0,56.0,13.0,0.97,-0.6269764528069818,5.0,-0.1541328523455161,-0.3722453792495486,0.2181125269040324
46,Pilot,d10012021,arjeO,interference,0.0,3.0,46.0,7.0,57.0,Pica1n.jpg,Lewc1n.jpg,67.0,22.0,0.0,,,1.0,7.0,57.0,0.922,-0.7490961372492241,45.0,0.8491847714130331,-1.113827970723259,1.963012742136292
47,Pilot,d10012021,arjeO,interference,1.0,3.0,47.0,32.0,22.0,Macka1.jpg,Macb1n.jpg,56.0,37.0,0.0,,0.0,1.0,32.0,22.0,1.081,-0.3445746825342962,19.0,0.3693372122241616,-0.4594903900111616,0.8288276022353233
48,Pilot,d10012021,A26v1,interference,1.0,1.0,0.0,37.0,7.0,Mondb1.jpg,Pica1n.jpg,50.0,85.0,1.0,,1.0,0.0,7.0,37.0,2.024,0.6811287259034204,-35.0,-0.5210807240217477,0.967721344611817,-1.4888020686335648
49,Pilot,d10012021,A26v1,interference,0.0,1.0,1.0,43.0,18.0,Picac1.jpg,Krasb1.jpg,36.0,64.0,0.0,,,1.0,43.0,18.0,1.903,0.505001410109508,-28.0,-1.1166015514751737,0.0744401034316782,-1.1910416549068517
50,Pilot,d10012021,A26v1,interference,1.0,1.0,2.0,31.0,3.0,Maca1n.jpg,Fogeg1.jpg,31.0,82.0,1.0,,1.0,0.0,3.0,31.0,1.92,0.5297465701797269,-51.0,-1.3292875612799684,0.8401097387289401,-2.1693973000089084
51,Pilot,d10012021,A26v1,interference,1.0,1.0,3.0,47.0,27.0,Kupkd1.jpg,Vinb1n.jpg,80.0,60.0,1.0,,1.0,1.0,47.0,27.0,3.254,2.471513836866332,20.0,0.7550353348070221,-0.0957087044121577,0.8507440392191798
52,Pilot,d10012021,A26v1,interference,0.0,1.0,4.0,20.0,40.0,Gorc1n.jpg,Krab1n.jpg,45.0,76.0,0.0,,,0.0,40.0,20.0,1.716,0.2328046493370978,-31.0,-0.7337667338265426,0.5848865269631861,-1.3186532607897288
53,Pilot,d10012021,A26v1,interference,0.0,1.0,5.0,14.0,50.0,Kupkb1.jpg,Gorke1.jpg,83.0,50.0,0.0,,,0.0,50.0,14.0,1.378,-0.2591873567649055,33.0,0.8826469406898991,-0.5210807240217477,1.4037276647116468
54,Pilot,d10012021,A26v1,interference,1.0,1.0,6.0,34.0,4.0,Monb1n.jpg,Mackb1.jpg,82.0,65.0,1.0,,1.0,0.0,4.0,34.0,1.305,-0.3654459853017286,17.0,0.8401097387289401,0.1169773053926372,0.723132433336303
55,Pilot,d10012021,A26v1,interference,1.0,1.0,7.0,32.0,10.0,Macka1.jpg,Stera1.jpg,74.0,41.0,1.0,,0.0,1.0,32.0,10.0,2.157,0.8747232135116052,33.0,0.4998121230412681,-0.9039155416703786,1.4037276647116468
56,Pilot,d10012021,A26v1,interference,0.0,1.0,8.0,25.0,41.0,Clifa1.jpg,Vincb1.jpg,79.0,66.0,0.0,,,1.0,25.0,41.0,2.877,1.922753522367943,13.0,0.7124981328460631,0.1595145073535962,0.5529836254924669
57,Pilot,d10012021,A26v1,interference,1.0,1.0,9.0,12.0,26.0,Kupkc1.jpg,Clib1n.jpg,82.0,60.0,1.0,,0.0,1.0,12.0,26.0,1.289,-0.3887355477207584,22.0,0.8401097387289401,-0.0957087044121577,0.935818443141098
58,Pilot,d10012021,A26v1,interference,0.0,1.0,10.0,45.0,29.0,Klia1n.jpg,Clifb1.jpg,39.0,61.0,0.0,,,0.0,29.0,45.0,3.318,2.564672086542451,-22.0,-0.9889899455922966,-0.0531715024511987,-0.935818443141098
59,Pilot,d10012021,A26v1,interference,0.0,1.0,11.0,38.0,6.0,Lasc1n.jpg,Wdekc1.jpg,65.0,38.0,0.0,,,0.0,6.0,38.0,1.174,-0.5561292776075347,27.0,0.1169773053926372,-1.0315271475532557,1.1485044529458928
60,Pilot,d10012021,A26v1,interference,1.0,1.0,12.0,52.0,22.0,Picaa1.jpg,Macb1n.jpg,61.0,82.0,1.0,,0.0,1.0,52.0,22.0,1.376,-0.2620985520672843,-21.0,-0.0531715024511987,0.8401097387289401,-0.8932812411801389
61,Pilot,d10012021,A26v1,interference,0.0,1.0,13.0,55.0,15.0,Lewic1.jpg,Clia1n.jpg,71.0,38.0,0.0,,,0.0,15.0,55.0,1.525,-0.0452145020400697,33.0,0.3722005171583912,-1.0315271475532557,1.4037276647116466
62,Pilot,d10012021,A26v1,interference,0.0,1.0,14.0,49.0,48.0,Hinda1.jpg,Picb1n.jpg,80.0,77.0,0.0,,,0.0,48.0,49.0,1.477,-0.1150831892971587,3.0,0.7550353348070221,0.6274237289241451,0.127611605882877
63,Pilot,d10012021,A26v1,interference,1.0,1.0,15.0,2.0,8.0,Dekob1.jpg,Klina1.jpg,78.0,50.0,1.0,,0.0,1.0,2.0,8.0,1.688,0.1920479151037957,28.0,0.6699609308851041,-0.5210807240217477,1.1910416549068517
64,Pilot,d10012021,A26v1,interference,0.0,2.0,16.0,43.0,18.0,Picac1.jpg,Krasb1.jpg,36.0,64.0,1.0,,,1.0,43.0,18.0,1.113,-0.6449207343300855,-28.0,-1.1166015514751737,0.0744401034316782,-1.1910416549068517
65,Pilot,d10012021,A26v1,interference,0.0,2.0,17.0,49.0,48.0,Hinda1.jpg,Picb1n.jpg,80.0,77.0,1.0,,,0.0,48.0,49.0,1.848,0.4249435392940934,3.0,0.7550353348070221,0.6274237289241451,0.127611605882877
66,Pilot,d10012021,A26v1,interference,0.0,2.0,18.0,38.0,6.0,Lasc1n.jpg,Wdekc1.jpg,65.0,38.0,1.0,,,0.0,6.0,38.0,1.466,-0.1310947634602418,27.0,0.1169773053926372,-1.0315271475532557,1.1485044529458928
67,Pilot,d10012021,A26v1,interference,1.0,2.0,19.0,32.0,10.0,Macka1.jpg,Stera1.jpg,74.0,41.0,0.0,,0.0,1.0,32.0,10.0,2.222,0.9693370608389134,33.0,0.4998121230412681,-0.9039155416703786,1.4037276647116468
68,Pilot,d10012021,A26v1,interference,0.0,2.0,20.0,14.0,50.0,Kupkb1.jpg,Gorke1.jpg,83.0,50.0,1.0,,,0.0,50.0,14.0,2.073,0.7524530108116989,33.0,0.8826469406898991,-0.5210807240217477,1.4037276647116468
69,Pilot,d10012021,A26v1,interference,1.0,2.0,21.0,34.0,4.0,Monb1n.jpg,Mackb1.jpg,82.0,65.0,0.0,,1.0,0.0,4.0,34.0,1.482,-0.107805201041212,17.0,0.8401097387289401,0.1169773053926372,0.723132433336303
70,Pilot,d10012021,A26v1,interference,1.0,2.0,22.0,12.0,26.0,Kupkc1.jpg,Clib1n.jpg,82.0,60.0,0.0,,0.0,1.0,12.0,26.0,1.385,-0.2489981732065798,22.0,0.8401097387289401,-0.0957087044121577,0.935818443141098
71,Pilot,d10012021,A26v1,interference,1.0,2.0,23.0,47.0,27.0,Kupkd1.jpg,Vinb1n.jpg,80.0,60.0,0.0,,1.0,1.0,47.0,27.0,1.696,0.2036926963133106,20.0,0.7550353348070221,-0.0957087044121577,0.8507440392191798
72,Pilot,d10012021,A26v1,interference,1.0,2.0,24.0,2.0,8.0,Dekob1.jpg,Klina1.jpg,78.0,50.0,0.0,,0.0,1.0,2.0,8.0,1.214,-0.4979053715599603,28.0,0.6699609308851041,-0.5210807240217477,1.1910416549068517
73,Pilot,d10012021,A26v1,interference,0.0,2.0,25.0,20.0,40.0,Gorc1n.jpg,Krab1n.jpg,45.0,76.0,1.0,,,0.0,40.0,20.0,1.184,-0.5415733010956411,-31.0,-0.7337667338265426,0.5848865269631861,-1.3186532607897288
74,Pilot,d10012021,A26v1,interference,1.0,2.0,26.0,37.0,7.0,Mondb1.jpg,Pica1n.jpg,50.0,85.0,0.0,,1.0,0.0,7.0,37.0,2.082,0.7655533896724029,-35.0,-0.5210807240217477,0.967721344611817,-1.4888020686335648
75,Pilot,d10012021,A26v1,interference,1.0,2.0,27.0,52.0,22.0,Picaa1.jpg,Macb1n.jpg,61.0,82.0,0.0,,0.0,1.0,52.0,22.0,3.28,2.5093593757972545,-21.0,-0.0531715024511987,0.8401097387289401,-0.8932812411801389
76,Pilot,d10012021,A26v1,interference,1.0,2.0,28.0,31.0,3.0,Maca1n.jpg,Fogeg1.jpg,31.0,82.0,0.0,,1.0,0.0,3.0,31.0,1.607,0.0741445053574577,-51.0,-1.3292875612799684,0.8401097387289401,-2.1693973000089084
77,Pilot,d10012021,A26v1,interference,0.0,2.0,29.0,55.0,15.0,Lewic1.jpg,Clia1n.jpg,71.0,38.0,1.0,,,0.0,15.0,55.0,1.426,-0.1893186695078162,33.0,0.3722005171583912,-1.0315271475532557,1.4037276647116466
78,Pilot,d10012021,A26v1,interference,0.0,2.0,30.0,25.0,41.0,Clifa1.jpg,Vincb1.jpg,79.0,66.0,1.0,,,1.0,25.0,41.0,2.986,2.081413666347584,13.0,0.7124981328460631,0.1595145073535962,0.5529836254924669
79,Pilot,d10012021,A26v1,interference,0.0,2.0,31.0,45.0,29.0,Klia1n.jpg,Clifb1.jpg,39.0,61.0,1.0,,,0.0,29.0,45.0,1.854,0.4336771252012295,-22.0,-0.9889899455922966,-0.0531715024511987,-0.935818443141098
80,Pilot,d10012021,A26v1,interference,0.0,3.0,32.0,55.0,15.0,Lewic1.jpg,Clia1n.jpg,71.0,38.0,0.0,,,0.0,15.0,55.0,1.274,-0.4105695124885987,33.0,0.3722005171583912,-1.0315271475532557,1.4037276647116466
81,Pilot,d10012021,A26v1,interference,0.0,3.0,33.0,38.0,6.0,Lasc1n.jpg,Wdekc1.jpg,65.0,38.0,0.0,,,0.0,6.0,38.0,0.829,-1.0583104672678634,27.0,0.1169773053926372,-1.0315271475532557,1.1485044529458928
82,Pilot,d10012021,A26v1,interference,1.0,3.0,34.0,31.0,3.0,Maca1n.jpg,Fogeg1.jpg,31.0,82.0,0.0,,1.0,0.0,3.0,31.0,1.544,-0.0175581466674717,-51.0,-1.3292875612799684,0.8401097387289401,-2.1693973000089084
83,Pilot,d10012021,A26v1,interference,0.0,3.0,35.0,14.0,50.0,Kupkb1.jpg,Gorke1.jpg,83.0,50.0,0.0,,,0.0,50.0,14.0,1.093,-0.6740326873538727,33.0,0.8826469406898991,-0.5210807240217477,1.4037276647116468
84,Pilot,d10012021,A26v1,interference,1.0,3.0,36.0,2.0,8.0,Dekob1.jpg,Klina1.jpg,78.0,50.0,0.0,,0.0,1.0,2.0,8.0,1.141,-0.6041640000967834,28.0,0.6699609308851041,-0.5210807240217477,1.1910416549068517
85,Pilot,d10012021,A26v1,interference,0.0,3.0,37.0,20.0,40.0,Gorc1n.jpg,Krab1n.jpg,45.0,76.0,0.0,,,0.0,40.0,20.0,1.06,-0.7220674098431213,-31.0,-0.7337667338265426,0.5848865269631861,-1.3186532607897288
86,Pilot,d10012021,A26v1,interference,1.0,3.0,38.0,12.0,26.0,Kupkc1.jpg,Clib1n.jpg,82.0,60.0,0.0,,0.0,1.0,12.0,26.0,1.102,-0.6609323084931683,22.0,0.8401097387289401,-0.0957087044121577,0.935818443141098
87,Pilot,d10012021,A26v1,interference,1.0,3.0,39.0,52.0,22.0,Picaa1.jpg,Macb1n.jpg,61.0,82.0,0.0,,0.0,1.0,52.0,22.0,0.843,-1.0379321001512123,-21.0,-0.0531715024511987,0.8401097387289401,-0.8932812411801389
88,Pilot,d10012021,A26v1,interference,0.0,3.0,40.0,43.0,18.0,Picac1.jpg,Krasb1.jpg,36.0,64.0,0.0,,,1.0,43.0,18.0,0.668,-1.29266168910935,-28.0,-1.1166015514751737,0.0744401034316782,-1.1910416549068517
89,Pilot,d10012021,A26v1,interference,1.0,3.0,41.0,37.0,7.0,Mondb1.jpg,Pica1n.jpg,50.0,85.0,0.0,,1.0,0.0,7.0,37.0,0.782,-1.1267235568737632,-35.0,-0.5210807240217477,0.967721344611817,-1.4888020686335648
90,Pilot,d10012021,A26v1,interference,1.0,3.0,42.0,47.0,27.0,Kupkd1.jpg,Vinb1n.jpg,80.0,60.0,0.0,,1.0,1.0,47.0,27.0,0.859,-1.0146425377321826,20.0,0.7550353348070221,-0.0957087044121577,0.8507440392191798
91,Pilot,d10012021,A26v1,interference,1.0,3.0,43.0,32.0,10.0,Macka1.jpg,Stera1.jpg,74.0,41.0,0.0,,0.0,1.0,32.0,10.0,0.64,-1.333418423342652,33.0,0.4998121230412681,-0.9039155416703786,1.4037276647116468
92,Pilot,d10012021,A26v1,interference,0.0,3.0,44.0,45.0,29.0,Klia1n.jpg,Clifb1.jpg,39.0,61.0,0.0,,,0.0,29.0,45.0,0.839,-1.0437544907559697,-22.0,-0.9889899455922966,-0.0531715024511987,-0.935818443141098
93,Pilot,d10012021,A26v1,interference,1.0,3.0,45.0,34.0,4.0,Monb1n.jpg,Mackb1.jpg,82.0,65.0,0.0,,1.0,0.0,4.0,34.0,0.851,-1.0262873189416974,17.0,0.8401097387289401,0.1169773053926372,0.723132433336303
94,Pilot,d10012021,A26v1,interference,0.0,3.0,46.0,49.0,48.0,Hinda1.jpg,Picb1n.jpg,80.0,77.0,0.0,,,0.0,48.0,49.0,0.766,-1.150013119292793,3.0,0.7550353348070221,0.6274237289241451,0.127611605882877
95,Pilot,d10012021,A26v1,interference,0.0,3.0,47.0,25.0,41.0,Clifa1.jpg,Vincb1.jpg,79.0,66.0,0.0,,,1.0,25.0,41.0,1.101,-0.6623879061443578,13.0,0.7124981328460631,0.1595145073535962,0.5529836254924669
96,Pilot,d10012021,eoRdQ,interference,0.0,1.0,0.0,34.0,45.0,Monb1n.jpg,Klia1n.jpg,69.0,72.0,0.0,,,0.0,45.0,34.0,1.531,0.8687252393904709,-3.0,-0.0160987115391879,0.1448884038526927,-0.1609871153918806
97,Pilot,d10012021,eoRdQ,interference,0.0,1.0,1.0,56.0,38.0,Luisc1.jpg,Lasc1n.jpg,58.0,62.0,0.0,,,1.0,56.0,38.0,1.924,1.738418648925144,-4.0,-0.606384801309417,-0.3917353141202427,-0.2146494871891742
98,Pilot,d10012021,eoRdQ,interference,1.0,1.0,2.0,48.0,43.0,Picb1n.jpg,Picac1.jpg,80.0,63.0,1.0,,0.0,1.0,48.0,43.0,0.902,-0.5232268079309268,17.0,0.574187378231041,-0.3380729423229492,0.9122603205539904
99,Pilot,d10012021,eoRdQ,interference,0.0,1.0,3.0,2.0,52.0,Dekob1.jpg,Picaa1.jpg,66.0,68.0,0.0,,,0.0,52.0,2.0,1.695,1.2316507334456528,-2.0,-0.1770858269310685,-0.0697610833364814,-0.1073247435945871
100,Pilot,d10012021,eoRdQ,interference,0.0,1.0,4.0,8.0,55.0,Klina1.jpg,Lewic1.jpg,62.0,78.0,0.0,,,0.0,55.0,8.0,1.029,-0.2421808460711217,-16.0,-0.3917353141202427,0.466862634636454,-0.8585979487566968
101,Pilot,d10012021,eoRdQ,interference,0.0,1.0,5.0,33.0,10.0,Kupc1n.jpg,Stera1.jpg,71.0,68.0,0.0,,,1.0,33.0,10.0,0.818,-0.7091154756177274,3.0,0.0912260320553991,-0.0697610833364814,0.1609871153918806
102,Pilot,d10012021,eoRdQ,interference,0.0,1.0,6.0,35.0,16.0,Wdeka1.jpg,Lewa1n.jpg,59.0,76.0,0.0,,,,,,,,-17.0,-0.5527224295121234,0.3595378910418669,-0.9122603205539904
103,Pilot,d10012021,eoRdQ,interference,0.0,1.0,6.0,35.0,16.0,Wdeka1.jpg,Lewa1n.jpg,59.0,76.0,0.0,,,1.0,35.0,16.0,1.362,0.4947349436872657,-17.0,-0.5527224295121234,0.3595378910418669,-0.9122603205539904
104,Pilot,d10012021,eoRdQ,interference,1.0,1.0,7.0,14.0,18.0,Kupkb1.jpg,Krasb1.jpg,83.0,67.0,1.0,,0.0,1.0,14.0,18.0,0.791,-0.7688654045170558,16.0,0.7351744936229218,-0.123423455133775,0.8585979487566968
105,Pilot,d10012021,eoRdQ,interference,1.0,1.0,8.0,51.0,31.0,Gora1n.jpg,Maca1n.jpg,75.0,74.0,1.0,,1.0,0.0,31.0,51.0,1.875,1.6299835927745103,1.0,0.3058755192445733,0.2522131474472798,0.0536623717972935
106,Pilot,d10012021,eoRdQ,interference,0.0,1.0,9.0,32.0,1.0,Macka1.jpg,Lewia1.jpg,77.0,70.0,0.0,,,0.0,1.0,32.0,1.57,0.955030692245057,7.0,0.4132002628391604,0.0375636602581056,0.3756366025810548
107,Pilot,d10012021,eoRdQ,interference,1.0,1.0,10.0,41.0,9.0,Vincb1.jpg,Lassc1.jpg,70.0,78.0,1.0,,0.0,1.0,41.0,9.0,2.399,2.789574805487408,-8.0,0.0375636602581056,0.466862634636454,-0.4292989743783483
108,Pilot,d10012021,eoRdQ,interference,1.0,1.0,11.0,58.0,40.0,Mackc1.jpg,Krab1n.jpg,77.0,74.0,1.0,,1.0,,,,,,3.0,0.4132002628391604,0.2522131474472798,0.1609871153918806
109,Pilot,d10012021,eoRdQ,interference,1.0,1.0,11.0,58.0,40.0,Mackc1.jpg,Krab1n.jpg,77.0,74.0,1.0,,1.0,1.0,58.0,40.0,0.609,-1.1716241845051234,3.0,0.4132002628391604,0.2522131474472798,0.1609871153918806
110,Pilot,d10012021,eoRdQ,interference,1.0,1.0,12.0,49.0,21.0,Hinda1.jpg,Lewb1n.jpg,79.0,86.0,1.0,,1.0,0.0,21.0,49.0,1.721,1.2891877020153768,-7.0,0.5205250064337476,0.8961616090148024,-0.3756366025810548
111,Pilot,d10012021,eoRdQ,interference,0.0,1.0,13.0,57.0,53.0,Lewc1n.jpg,Gorka1.jpg,66.0,61.0,0.0,,,1.0,57.0,53.0,1.091,-0.1049773056356261,5.0,-0.1770858269310685,-0.4453976859175362,0.2683118589864677
112,Pilot,d10012021,eoRdQ,interference,1.0,1.0,14.0,39.0,4.0,Dekb1n.jpg,Mackb1.jpg,78.0,85.0,1.0,,0.0,1.0,39.0,4.0,1.559,0.9306881286194044,-7.0,0.466862634636454,0.8424992372175089,-0.3756366025810548
113,Pilot,d10012021,eoRdQ,interference,1.0,1.0,15.0,29.0,37.0,Clifb1.jpg,Mondb1.jpg,80.0,84.0,1.0,,1.0,0.0,37.0,29.0,2.114,2.158881111550049,-4.0,0.574187378231041,0.7888368654202152,-0.2146494871891742
114,Pilot,d10012021,eoRdQ,interference,0.0,2.0,16.0,35.0,16.0,Wdeka1.jpg,Lewa1n.jpg,59.0,76.0,1.0,,,1.0,35.0,16.0,1.548,0.906345564993752,-17.0,-0.5527224295121234,0.3595378910418669,-0.9122603205539904
115,Pilot,d10012021,eoRdQ,interference,1.0,2.0,17.0,29.0,37.0,Clifb1.jpg,Mondb1.jpg,80.0,84.0,0.0,,1.0,0.0,37.0,29.0,1.534,0.8753641203792853,-4.0,0.574187378231041,0.7888368654202152,-0.2146494871891742
116,Pilot,d10012021,eoRdQ,interference,0.0,2.0,18.0,57.0,53.0,Lewc1n.jpg,Gorka1.jpg,66.0,61.0,1.0,,,1.0,57.0,53.0,0.675,-1.0255688027512089,5.0,-0.1770858269310685,-0.4453976859175362,0.2683118589864677
117,Pilot,d10012021,eoRdQ,interference,1.0,2.0,19.0,58.0,40.0,Mackc1.jpg,Krab1n.jpg,77.0,74.0,0.0,,1.0,1.0,58.0,40.0,1.813,1.492780052339015,3.0,0.4132002628391604,0.2522131474472798,0.1609871153918806
118,Pilot,d10012021,eoRdQ,interference,1.0,2.0,20.0,39.0,4.0,Dekb1n.jpg,Mackb1.jpg,78.0,85.0,0.0,,0.0,1.0,39.0,4.0,0.729,-0.9060689449525514,-7.0,0.466862634636454,0.8424992372175089,-0.3756366025810548
119,Pilot,d10012021,eoRdQ,interference,0.0,2.0,21.0,2.0,52.0,Dekob1.jpg,Picaa1.jpg,66.0,68.0,1.0,,,0.0,52.0,2.0,0.873,-0.5874026574894651,-2.0,-0.1770858269310685,-0.0697610833364814,-0.1073247435945871
120,Pilot,d10012021,eoRdQ,interference,0.0,2.0,22.0,56.0,38.0,Luisc1.jpg,Lasc1n.jpg,58.0,62.0,1.0,,,1.0,56.0,38.0,1.027,-0.2466067667303313,-4.0,-0.606384801309417,-0.3917353141202427,-0.2146494871891742
121,Pilot,d10012021,eoRdQ,interference,1.0,2.0,23.0,48.0,43.0,Picb1n.jpg,Picac1.jpg,80.0,63.0,0.0,,0.0,1.0,48.0,43.0,0.887,-0.5564212128749983,17.0,0.574187378231041,-0.3380729423229492,0.9122603205539904
122,Pilot,d10012021,eoRdQ,interference,1.0,2.0,24.0,51.0,31.0,Gora1n.jpg,Maca1n.jpg,75.0,74.0,0.0,,1.0,0.0,31.0,51.0,1.048,-0.2001345998086309,1.0,0.3058755192445733,0.2522131474472798,0.0536623717972935
123,Pilot,d10012021,eoRdQ,interference,0.0,2.0,25.0,34.0,45.0,Monb1n.jpg,Klia1n.jpg,69.0,72.0,1.0,,,0.0,45.0,34.0,1.018,-0.2665234096967739,-3.0,-0.0160987115391879,0.1448884038526927,-0.1609871153918806
124,Pilot,d10012021,eoRdQ,interference,0.0,2.0,26.0,32.0,1.0,Macka1.jpg,Lewia1.jpg,77.0,70.0,1.0,,,0.0,1.0,32.0,1.443,0.6739847303852518,7.0,0.4132002628391604,0.0375636602581056,0.3756366025810548
125,Pilot,d10012021,eoRdQ,interference,1.0,2.0,27.0,41.0,9.0,Vincb1.jpg,Lassc1.jpg,70.0,78.0,0.0,,0.0,1.0,41.0,9.0,1.608,1.0391231847700382,-8.0,0.0375636602581056,0.466862634636454,-0.4292989743783483
126,Pilot,d10012021,eoRdQ,interference,1.0,2.0,28.0,14.0,18.0,Kupkb1.jpg,Krasb1.jpg,83.0,67.0,0.0,,0.0,1.0,14.0,18.0,0.952,-0.4125787914506886,16.0,0.7351744936229218,-0.123423455133775,0.8585979487566968
127,Pilot,d10012021,eoRdQ,interference,0.0,2.0,29.0,33.0,10.0,Kupc1n.jpg,Stera1.jpg,71.0,68.0,1.0,,,1.0,33.0,10.0,0.755,-0.8485319763828275,3.0,0.0912260320553991,-0.0697610833364814,0.1609871153918806
128,Pilot,d10012021,eoRdQ,interference,1.0,2.0,30.0,49.0,21.0,Hinda1.jpg,Lewb1n.jpg,79.0,86.0,0.0,,1.0,0.0,21.0,49.0,0.933,-0.4546250377131789,-7.0,0.5205250064337476,0.8961616090148024,-0.3756366025810548
129,Pilot,d10012021,eoRdQ,interference,0.0,2.0,31.0,8.0,55.0,Klina1.jpg,Lewic1.jpg,62.0,78.0,1.0,,,0.0,55.0,8.0,1.466,0.7248828179661612,-16.0,-0.3917353141202427,0.466862634636454,-0.8585979487566968
130,Pilot,d10012021,eoRdQ,interference,0.0,3.0,32.0,34.0,45.0,Monb1n.jpg,Klia1n.jpg,69.0,72.0,0.0,,,0.0,45.0,34.0,1.016,-0.2709493303559835,-3.0,-0.0160987115391879,0.1448884038526927,-0.1609871153918806
131,Pilot,d10012021,eoRdQ,interference,1.0,3.0,33.0,48.0,43.0,Picb1n.jpg,Picac1.jpg,80.0,63.0,0.0,,0.0,1.0,48.0,43.0,0.643,-1.0963835332985612,17.0,0.574187378231041,-0.3380729423229492,0.9122603205539904
132,Pilot,d10012021,eoRdQ,interference,0.0,3.0,34.0,57.0,53.0,Lewc1n.jpg,Gorka1.jpg,66.0,61.0,0.0,,,1.0,57.0,53.0,0.685,-1.003439199455161,5.0,-0.1770858269310685,-0.4453976859175362,0.2683118589864677
133,Pilot,d10012021,eoRdQ,interference,0.0,3.0,35.0,32.0,1.0,Macka1.jpg,Lewia1.jpg,77.0,70.0,0.0,,,0.0,1.0,32.0,0.54,-1.3243184472478522,7.0,0.4132002628391604,0.0375636602581056,0.3756366025810548
134,Pilot,d10012021,eoRdQ,interference,0.0,3.0,36.0,8.0,55.0,Klina1.jpg,Lewic1.jpg,62.0,78.0,0.0,,,0.0,55.0,8.0,1.257,0.2623741090787648,-16.0,-0.3917353141202427,0.466862634636454,-0.8585979487566968
135,Pilot,d10012021,eoRdQ,interference,1.0,3.0,37.0,14.0,18.0,Kupkb1.jpg,Krasb1.jpg,83.0,67.0,0.0,,0.0,1.0,14.0,18.0,0.636,-1.1118742556057946,16.0,0.7351744936229218,-0.123423455133775,0.8585979487566968
136,Pilot,d10012021,eoRdQ,interference,1.0,3.0,38.0,29.0,37.0,Clifb1.jpg,Mondb1.jpg,80.0,84.0,0.0,,1.0,0.0,37.0,29.0,0.83,-0.6825599516624701,-4.0,0.574187378231041,0.7888368654202152,-0.2146494871891742
137,Pilot,d10012021,eoRdQ,interference,1.0,3.0,39.0,41.0,9.0,Vincb1.jpg,Lassc1.jpg,70.0,78.0,0.0,,0.0,1.0,41.0,9.0,0.991,-0.3262733385961027,-8.0,0.0375636602581056,0.466862634636454,-0.4292989743783483
138,Pilot,d10012021,eoRdQ,interference,0.0,3.0,40.0,33.0,10.0,Kupc1n.jpg,Stera1.jpg,71.0,68.0,0.0,,,1.0,33.0,10.0,0.661,-1.0565502473656754,3.0,0.0912260320553991,-0.0697610833364814,0.1609871153918806
139,Pilot,d10012021,eoRdQ,interference,1.0,3.0,41.0,51.0,31.0,Gora1n.jpg,Maca1n.jpg,75.0,74.0,0.0,,1.0,0.0,31.0,51.0,0.843,-0.6537914673776081,1.0,0.3058755192445733,0.2522131474472798,0.0536623717972935
140,Pilot,d10012021,eoRdQ,interference,0.0,3.0,42.0,56.0,38.0,Luisc1.jpg,Lasc1n.jpg,58.0,62.0,0.0,,,1.0,56.0,38.0,0.68,-1.0145040011031847,-4.0,-0.606384801309417,-0.3917353141202427,-0.2146494871891742
141,Pilot,d10012021,eoRdQ,interference,0.0,3.0,43.0,35.0,16.0,Wdeka1.jpg,Lewa1n.jpg,59.0,76.0,0.0,,,1.0,35.0,16.0,1.0,-0.3063566956296598,-17.0,-0.5527224295121234,0.3595378910418669,-0.9122603205539904
142,Pilot,d10012021,eoRdQ,interference,0.0,3.0,44.0,2.0,52.0,Dekob1.jpg,Picaa1.jpg,66.0,68.0,0.0,,,0.0,52.0,2.0,0.86,-0.6161711417743271,-2.0,-0.1770858269310685,-0.0697610833364814,-0.1073247435945871
143,Pilot,d10012021,eoRdQ,interference,1.0,3.0,45.0,49.0,21.0,Hinda1.jpg,Lewb1n.jpg,79.0,86.0,0.0,,1.0,0.0,21.0,49.0,0.735,-0.8927911829749228,-7.0,0.5205250064337476,0.8961616090148024,-0.3756366025810548
144,Pilot,d10012021,eoRdQ,interference,1.0,3.0,46.0,39.0,4.0,Dekb1n.jpg,Mackb1.jpg,78.0,85.0,0.0,,0.0,1.0,39.0,4.0,0.77,-0.815337571438756,-7.0,0.466862634636454,0.8424992372175089,-0.3756366025810548
145,Pilot,d10012021,eoRdQ,interference,1.0,3.0,47.0,58.0,40.0,Mackc1.jpg,Krab1n.jpg,77.0,74.0,0.0,,1.0,1.0,58.0,40.0,1.199,0.1340224099616888,3.0,0.4132002628391604,0.2522131474472798,0.1609871153918806
146,Pilot,d10012021,lPMys,interference,1.0,1.0,0.0,32.0,57.0,Macka1.jpg,Lewc1n.jpg,60.0,43.0,1.0,,1.0,1.0,32.0,57.0,3.57,2.401145498874341,17.0,0.2247028137133102,-0.8615382762752041,1.0862410899885142
147,Pilot,d10012021,lPMys,interference,0.0,1.0,1.0,31.0,10.0,Maca1n.jpg,Stera1.jpg,59.0,48.0,0.0,,,1.0,31.0,10.0,1.806,0.5055007805902391,11.0,0.1608062790081035,-0.5420556027491704,0.7028618817572739
148,Pilot,d10012021,lPMys,interference,0.0,1.0,2.0,56.0,22.0,Luisc1.jpg,Macb1n.jpg,54.0,41.0,0.0,,,0.0,22.0,56.0,0.93,-0.4358738074011858,13.0,-0.15867639451793,-0.9893313456856176,0.8306549511676875
149,Pilot,d10012021,lPMys,interference,1.0,1.0,3.0,47.0,4.0,Kupkd1.jpg,Mackb1.jpg,58.0,45.0,1.0,,0.0,1.0,47.0,4.0,0.73,-0.6507995124220591,13.0,0.0969097443028968,-0.7337452068647906,0.8306549511676874
150,Pilot,d10012021,lPMys,interference,1.0,1.0,4.0,3.0,41.0,Fogeg1.jpg,Vincb1.jpg,56.0,62.0,1.0,,1.0,0.0,41.0,3.0,5.483,4.456909867398993,-6.0,-0.0308833251075166,0.3524958831237237,-0.3833792082312403
151,Pilot,d10012021,lPMys,interference,0.0,1.0,5.0,2.0,13.0,Dekob1.jpg,Picak1.jpg,57.0,60.0,0.0,,,0.0,13.0,2.0,1.008,-0.3520527824430453,-3.0,0.03301320959769,0.2247028137133102,-0.1916896041156201
152,Pilot,d10012021,lPMys,interference,0.0,1.0,6.0,24.0,38.0,Dekoa1.jpg,Lasc1n.jpg,55.0,57.0,0.0,,,1.0,24.0,38.0,0.73,-0.6507995124220591,-2.0,-0.0947798598127233,0.03301320959769,-0.1277930694104134
153,Pilot,d10012021,lPMys,interference,1.0,1.0,7.0,1.0,34.0,Lewia1.jpg,Monb1n.jpg,64.0,46.0,1.0,,0.0,1.0,1.0,34.0,0.772,-0.6056651143676758,18.0,0.4802889525341371,-0.6698486721595839,1.1501376246937212
154,Pilot,d10012021,lPMys,interference,0.0,1.0,8.0,27.0,28.0,Vinb1n.jpg,Krasa1.jpg,53.0,55.0,0.0,,,0.0,28.0,27.0,1.323,-0.0135447970351699,-2.0,-0.2225729292231368,-0.0947798598127233,-0.1277930694104134
155,Pilot,d10012021,lPMys,interference,1.0,1.0,9.0,12.0,43.0,Kupkc1.jpg,Picac1.jpg,63.0,67.0,1.0,,1.0,0.0,43.0,12.0,1.356,0.0219179442932742,-4.0,0.4163924178289304,0.6719785566497574,-0.2555861388208269
156,Pilot,d10012021,lPMys,interference,0.0,1.0,10.0,55.0,49.0,Lewic1.jpg,Hinda1.jpg,50.0,43.0,0.0,,,1.0,55.0,49.0,1.551,0.2314705066886255,7.0,-0.414262533338757,-0.8615382762752041,0.447275742936447
157,Pilot,d10012021,lPMys,interference,1.0,1.0,11.0,45.0,37.0,Klia1n.jpg,Mondb1.jpg,50.0,62.0,1.0,,1.0,0.0,37.0,45.0,0.906,-0.4616648920036906,-12.0,-0.414262533338757,0.3524958831237237,-0.7667584164624808
158,Pilot,d10012021,lPMys,interference,0.0,1.0,12.0,33.0,7.0,Kupc1n.jpg,Pica1n.jpg,60.0,68.0,0.0,,,0.0,7.0,33.0,1.338,0.0025746308413956,-8.0,0.2247028137133102,0.7358750913549641,-0.5111722776416538
159,Pilot,d10012021,lPMys,interference,1.0,1.0,13.0,59.0,25.0,Kraa1n.jpg,Clifa1.jpg,60.0,68.0,1.0,,0.0,0.0,25.0,59.0,2.332,1.0707553847951357,-8.0,0.2247028137133102,0.7358750913549641,-0.5111722776416538
160,Pilot,d10012021,lPMys,interference,0.0,1.0,14.0,46.0,0.0,Deka1n.jpg,Gorkc1.jpg,60.0,59.0,0.0,,,0.0,0.0,46.0,1.813,0.5130231802659696,1.0,0.2247028137133102,0.1608062790081035,0.0638965347052067
161,Pilot,d10012021,lPMys,interference,1.0,1.0,15.0,23.0,19.0,Lewib1.jpg,Macc1n.jpg,61.0,62.0,1.0,,0.0,0.0,19.0,23.0,1.594,0.2776795332681134,-1.0,0.288599348418517,0.3524958831237237,-0.0638965347052067
162,Pilot,d10012021,lPMys,interference,1.0,2.0,16.0,3.0,41.0,Fogeg1.jpg,Vincb1.jpg,56.0,62.0,0.0,,1.0,0.0,41.0,3.0,2.308,1.0449643001926308,-6.0,-0.0308833251075166,0.3524958831237237,-0.3833792082312403
163,Pilot,d10012021,lPMys,interference,0.0,2.0,17.0,33.0,7.0,Kupc1n.jpg,Pica1n.jpg,60.0,68.0,1.0,,,0.0,7.0,33.0,0.854,-0.5175455753091177,-8.0,0.2247028137133102,0.7358750913549641,-0.5111722776416538
164,Pilot,d10012021,lPMys,interference,1.0,2.0,18.0,59.0,25.0,Kraa1n.jpg,Clifa1.jpg,60.0,68.0,0.0,,0.0,0.0,25.0,59.0,2.365,1.1062181261235802,-8.0,0.2247028137133102,0.7358750913549641,-0.5111722776416538
165,Pilot,d10012021,lPMys,interference,1.0,2.0,19.0,45.0,37.0,Klia1n.jpg,Mondb1.jpg,50.0,62.0,0.0,,1.0,0.0,37.0,45.0,0.919,-0.4476947211773338,-12.0,-0.414262533338757,0.3524958831237237,-0.7667584164624808
166,Pilot,d10012021,lPMys,interference,0.0,2.0,20.0,24.0,38.0,Dekoa1.jpg,Lasc1n.jpg,55.0,57.0,1.0,,,1.0,24.0,38.0,0.682,-0.7023816816270687,-2.0,-0.0947798598127233,0.03301320959769,-0.1277930694104134
167,Pilot,d10012021,lPMys,interference,0.0,2.0,21.0,2.0,13.0,Dekob1.jpg,Picak1.jpg,57.0,60.0,1.0,,,0.0,13.0,2.0,1.039,-0.31873929816481,-3.0,0.03301320959769,0.2247028137133102,-0.1916896041156201
168,Pilot,d10012021,lPMys,interference,1.0,2.0,22.0,47.0,4.0,Kupkd1.jpg,Mackb1.jpg,58.0,45.0,0.0,,0.0,1.0,47.0,4.0,1.273,-0.0672762232903883,13.0,0.0969097443028968,-0.7337452068647906,0.8306549511676874
169,Pilot,d10012021,lPMys,interference,0.0,2.0,23.0,46.0,0.0,Deka1n.jpg,Gorkc1.jpg,60.0,59.0,1.0,,,0.0,0.0,46.0,0.731,-0.6497248838969548,1.0,0.2247028137133102,0.1608062790081035,0.0638965347052067
170,Pilot,d10012021,lPMys,interference,0.0,2.0,24.0,56.0,22.0,Luisc1.jpg,Macb1n.jpg,54.0,41.0,1.0,,,0.0,22.0,56.0,0.944,-0.4208290080497248,13.0,-0.15867639451793,-0.9893313456856176,0.8306549511676875
171,Pilot,d10012021,lPMys,interference,0.0,2.0,25.0,31.0,10.0,Maca1n.jpg,Stera1.jpg,59.0,48.0,1.0,,,1.0,31.0,10.0,1.885,0.590396434073484,11.0,0.1608062790081035,-0.5420556027491704,0.7028618817572739
172,Pilot,d10012021,lPMys,interference,1.0,2.0,26.0,12.0,43.0,Kupkc1.jpg,Picac1.jpg,63.0,67.0,0.0,,1.0,0.0,43.0,12.0,2.29,1.0256209867407524,-4.0,0.4163924178289304,0.6719785566497574,-0.2555861388208269
173,Pilot,d10012021,lPMys,interference,1.0,2.0,27.0,1.0,34.0,Lewia1.jpg,Monb1n.jpg,64.0,46.0,0.0,,0.0,1.0,1.0,34.0,1.132,-0.218798845330104,18.0,0.4802889525341371,-0.6698486721595839,1.1501376246937212
174,Pilot,d10012021,lPMys,interference,0.0,2.0,28.0,27.0,28.0,Vinb1n.jpg,Krasa1.jpg,53.0,55.0,1.0,,,0.0,28.0,27.0,0.868,-0.5025007759576566,-2.0,-0.2225729292231368,-0.0947798598127233,-0.1277930694104134
175,Pilot,d10012021,lPMys,interference,1.0,2.0,29.0,23.0,19.0,Lewib1.jpg,Macc1n.jpg,61.0,62.0,0.0,,0.0,0.0,19.0,23.0,1.661,0.3496796444501059,-1.0,0.288599348418517,0.3524958831237237,-0.0638965347052067
176,Pilot,d10012021,lPMys,interference,1.0,2.0,30.0,32.0,57.0,Macka1.jpg,Lewc1n.jpg,60.0,43.0,0.0,,1.0,1.0,32.0,57.0,1.03,-0.3284109548907492,17.0,0.2247028137133102,-0.8615382762752041,1.0862410899885142
177,Pilot,d10012021,lPMys,interference,0.0,2.0,31.0,55.0,49.0,Lewic1.jpg,Hinda1.jpg,50.0,43.0,1.0,,,1.0,55.0,49.0,0.845,-0.527217232035057,7.0,-0.414262533338757,-0.8615382762752041,0.447275742936447
178,Pilot,d10012021,lPMys,interference,0.0,3.0,32.0,56.0,22.0,Luisc1.jpg,Macb1n.jpg,54.0,41.0,0.0,,,0.0,22.0,56.0,3.669,2.507533722859674,13.0,-0.15867639451793,-0.9893313456856176,0.8306549511676875
179,Pilot,d10012021,lPMys,interference,0.0,3.0,33.0,24.0,38.0,Dekoa1.jpg,Lasc1n.jpg,55.0,57.0,0.0,,,1.0,24.0,38.0,0.908,-0.4595156349534819,-2.0,-0.0947798598127233,0.03301320959769,-0.1277930694104134
180,Pilot,d10012021,lPMys,interference,0.0,3.0,34.0,55.0,49.0,Lewic1.jpg,Hinda1.jpg,50.0,43.0,0.0,,,1.0,55.0,49.0,1.119,-0.2327690161564606,7.0,-0.414262533338757,-0.8615382762752041,0.447275742936447
181,Pilot,d10012021,lPMys,interference,1.0,3.0,35.0,3.0,41.0,Fogeg1.jpg,Vincb1.jpg,56.0,62.0,0.0,,1.0,0.0,41.0,3.0,0.943,-0.4219036365748291,-6.0,-0.0308833251075166,0.3524958831237237,-0.3833792082312403
182,Pilot,d10012021,lPMys,interference,0.0,3.0,36.0,31.0,10.0,Maca1n.jpg,Stera1.jpg,59.0,48.0,0.0,,,1.0,31.0,10.0,0.655,-0.7313966518048866,11.0,0.1608062790081035,-0.5420556027491704,0.7028618817572739
183,Pilot,d10012021,lPMys,interference,1.0,3.0,37.0,32.0,57.0,Macka1.jpg,Lewc1n.jpg,60.0,43.0,0.0,,1.0,1.0,32.0,57.0,0.831,-0.5422620313865182,17.0,0.2247028137133102,-0.8615382762752041,1.0862410899885142
184,Pilot,d10012021,lPMys,interference,0.0,3.0,38.0,33.0,7.0,Kupc1n.jpg,Pica1n.jpg,60.0,68.0,0.0,,,0.0,7.0,33.0,0.768,-0.6099636284680932,-8.0,0.2247028137133102,0.7358750913549641,-0.5111722776416538
185,Pilot,d10012021,lPMys,interference,1.0,3.0,39.0,47.0,4.0,Kupkd1.jpg,Mackb1.jpg,58.0,45.0,0.0,,0.0,1.0,47.0,4.0,0.674,-0.7109787098279036,13.0,0.0969097443028968,-0.7337452068647906,0.8306549511676874
186,Pilot,d10012021,lPMys,interference,1.0,3.0,40.0,59.0,25.0,Kraa1n.jpg,Clifa1.jpg,60.0,68.0,0.0,,0.0,0.0,25.0,59.0,1.481,0.15624650993132,-8.0,0.2247028137133102,0.7358750913549641,-0.5111722776416538
187,Pilot,d10012021,lPMys,interference,0.0,3.0,41.0,2.0,13.0,Dekob1.jpg,Picak1.jpg,57.0,60.0,0.0,,,0.0,13.0,2.0,0.681,-0.703456310152173,-3.0,0.03301320959769,0.2247028137133102,-0.1916896041156201
188,Pilot,d10012021,lPMys,interference,1.0,3.0,42.0,23.0,19.0,Lewib1.jpg,Macc1n.jpg,61.0,62.0,0.0,,0.0,0.0,19.0,23.0,0.731,-0.6497248838969548,-1.0,0.288599348418517,0.3524958831237237,-0.0638965347052067
189,Pilot,d10012021,lPMys,interference,1.0,3.0,43.0,12.0,43.0,Kupkc1.jpg,Picac1.jpg,63.0,67.0,0.0,,1.0,0.0,43.0,12.0,0.745,-0.6346800845454936,-4.0,0.4163924178289304,0.6719785566497574,-0.2555861388208269
190,Pilot,d10012021,lPMys,interference,1.0,3.0,44.0,1.0,34.0,Lewia1.jpg,Monb1n.jpg,64.0,46.0,0.0,,0.0,1.0,1.0,34.0,0.569,-0.8238147049638622,18.0,0.4802889525341371,-0.6698486721595839,1.1501376246937212
191,Pilot,d10012021,lPMys,interference,0.0,3.0,45.0,46.0,0.0,Deka1n.jpg,Gorkc1.jpg,60.0,59.0,0.0,,,0.0,0.0,46.0,0.668,-0.7174264809785298,1.0,0.2247028137133102,0.1608062790081035,0.0638965347052067
192,Pilot,d10012021,lPMys,interference,1.0,3.0,46.0,45.0,37.0,Klia1n.jpg,Mondb1.jpg,50.0,62.0,0.0,,1.0,0.0,37.0,45.0,0.768,-0.6099636284680932,-12.0,-0.414262533338757,0.3524958831237237,-0.7667584164624808
193,Pilot,d10012021,lPMys,interference,0.0,3.0,47.0,27.0,28.0,Vinb1n.jpg,Krasa1.jpg,53.0,55.0,0.0,,,0.0,28.0,27.0,0.831,-0.5422620313865182,-2.0,-0.2225729292231368,-0.0947798598127233,-0.1277930694104134
194,Pilot,d09302021,d1IcC,interference,1.0,1.0,0.0,27.0,16.0,Vinb1n.jpg,Lewa1n.jpg,23.0,16.0,1.0,,0.0,1.0,27.0,16.0,3.849,4.271718589194959,7.0,-0.3884217037804723,-0.6341101308705299,0.2456884270900576
195,Pilot,d09302021,d1IcC,interference,0.0,1.0,1.0,59.0,45.0,Kraa1n.jpg,Klia1n.jpg,21.0,15.0,0.0,,,0.0,45.0,59.0,1.376,0.2293224778746381,6.0,-0.4586183972347745,-0.6692084775976811,0.2105900803629066
196,Pilot,d09302021,d1IcC,interference,1.0,1.0,2.0,4.0,44.0,Mackb1.jpg,Lassf1.jpg,9.0,41.0,1.0,,1.0,0.0,44.0,4.0,1.824,0.961628768967038,-32.0,-0.8797985579605877,0.2433485373082475,-1.1231470952688352
197,Pilot,d09302021,d1IcC,interference,0.0,1.0,3.0,10.0,55.0,Stera1.jpg,Lewic1.jpg,11.0,51.0,0.0,,,1.0,10.0,55.0,2.391,1.888453918630856,-40.0,-0.8096018645062855,0.5943320045797585,-1.403933869086044
198,Pilot,d09302021,d1IcC,interference,1.0,1.0,4.0,19.0,31.0,Macc1n.jpg,Maca1n.jpg,30.0,62.0,1.0,,0.0,1.0,19.0,31.0,3.041,2.950951885617596,-32.0,-0.1427332766904145,0.9804138185784206,-1.1231470952688352
199,Pilot,d09302021,d1IcC,interference,0.0,1.0,5.0,17.0,29.0,Picab1.jpg,Clifb1.jpg,12.0,6.0,0.0,,,0.0,29.0,17.0,1.358,0.1998994572503903,6.0,-0.7745035177791344,-0.985093598142041,0.2105900803629066
200,Pilot,d09302021,d1IcC,interference,0.0,1.0,6.0,8.0,5.0,Klina1.jpg,Kupb1n.jpg,21.0,64.0,0.0,,,0.0,5.0,8.0,1.13,-0.1727921373234204,-43.0,-0.4586183972347745,1.0506105120327227,-1.509228909267497
201,Pilot,d09302021,d1IcC,interference,0.0,1.0,7.0,12.0,38.0,Kupkc1.jpg,Lasc1n.jpg,65.0,59.0,0.0,,,1.0,12.0,38.0,0.738,-0.8135601420292697,6.0,1.0857088587598738,0.8751187783969673,0.2105900803629065
202,Pilot,d09302021,d1IcC,interference,0.0,1.0,8.0,33.0,32.0,Kupc1n.jpg,Macka1.jpg,4.0,33.0,0.0,,,1.0,33.0,32.0,0.94,-0.483368466134929,-29.0,-1.0552902915963431,-0.0374382365089612,-1.0178520550873815
203,Pilot,d09302021,d1IcC,interference,0.0,1.0,9.0,22.0,15.0,Macb1n.jpg,Clia1n.jpg,25.0,32.0,0.0,,,1.0,22.0,15.0,1.104,-0.2152920560028897,-7.0,-0.31822501032617,-0.0725365832361123,-0.2456884270900576
204,Pilot,d09302021,d1IcC,interference,1.0,1.0,10.0,46.0,58.0,Deka1n.jpg,Mackc1.jpg,62.0,68.0,1.0,,0.0,1.0,46.0,58.0,1.036,-0.3264456894722718,-6.0,0.9804138185784206,1.1910038989413272,-0.2105900803629066
205,Pilot,d09302021,d1IcC,interference,1.0,1.0,11.0,24.0,25.0,Dekoa1.jpg,Clifa1.jpg,19.0,65.0,1.0,,1.0,0.0,25.0,24.0,1.671,0.7115330936609282,-46.0,-0.5288150906890767,1.0857088587598738,-1.6145239494489505
206,Pilot,d09302021,d1IcC,interference,1.0,1.0,12.0,41.0,13.0,Vincb1.jpg,Picak1.jpg,32.0,67.0,1.0,,1.0,0.0,13.0,41.0,1.795,0.91422501351686,-35.0,-0.0725365832361123,1.155905552214176,-1.2284421354502886
207,Pilot,d09302021,d1IcC,interference,1.0,1.0,13.0,3.0,34.0,Fogeg1.jpg,Monb1n.jpg,11.0,50.0,1.0,,0.0,1.0,3.0,34.0,1.137,-0.1613498515251015,-39.0,-0.8096018645062855,0.5592336578526074,-1.3688355223588928
208,Pilot,d09302021,d1IcC,interference,0.0,1.0,14.0,50.0,54.0,Gorke1.jpg,Kupka1.jpg,36.0,18.0,0.0,,,0.0,54.0,50.0,1.942,1.1545130152815537,18.0,0.067856803672492,-0.5639134374162278,0.6317702410887198
209,Pilot,d09302021,d1IcC,interference,1.0,1.0,15.0,42.0,23.0,Picc1n.jpg,Lewib1.jpg,14.0,7.0,1.0,,1.0,0.0,23.0,42.0,1.38,0.2358609269022488,7.0,-0.7043068243248322,-0.9499952514148898,0.2456884270900576
210,Pilot,d09302021,d1IcC,interference,0.0,2.0,16.0,12.0,38.0,Kupkc1.jpg,Lasc1n.jpg,65.0,59.0,1.0,,,1.0,12.0,38.0,1.452,0.3535530093992417,6.0,1.0857088587598738,0.8751187783969673,0.2105900803629065
211,Pilot,d09302021,d1IcC,interference,0.0,2.0,17.0,8.0,5.0,Klina1.jpg,Kupb1n.jpg,21.0,64.0,1.0,,,0.0,5.0,8.0,1.145,-0.1482729534698801,-43.0,-0.4586183972347745,1.0506105120327227,-1.509228909267497
212,Pilot,d09302021,d1IcC,interference,1.0,2.0,18.0,46.0,58.0,Deka1n.jpg,Mackc1.jpg,62.0,68.0,0.0,,0.0,1.0,46.0,58.0,0.862,-0.6108682221733378,-6.0,0.9804138185784206,1.1910038989413272,-0.2105900803629066
213,Pilot,d09302021,d1IcC,interference,1.0,2.0,19.0,3.0,34.0,Fogeg1.jpg,Monb1n.jpg,11.0,50.0,0.0,,0.0,1.0,3.0,34.0,1.086,-0.2447150766271379,-39.0,-0.8096018645062855,0.5592336578526074,-1.3688355223588928
214,Pilot,d09302021,d1IcC,interference,1.0,2.0,20.0,4.0,44.0,Mackb1.jpg,Lassf1.jpg,9.0,41.0,0.0,,1.0,0.0,44.0,4.0,0.879,-0.5830798138059923,-32.0,-0.8797985579605877,0.2433485373082475,-1.1231470952688352
215,Pilot,d09302021,d1IcC,interference,1.0,2.0,21.0,24.0,25.0,Dekoa1.jpg,Clifa1.jpg,19.0,65.0,0.0,,1.0,0.0,25.0,24.0,0.859,-0.6157720589440459,-46.0,-0.5288150906890767,1.0857088587598738,-1.6145239494489505
216,Pilot,d09302021,d1IcC,interference,0.0,2.0,22.0,22.0,15.0,Macb1n.jpg,Clia1n.jpg,25.0,32.0,1.0,,,1.0,22.0,15.0,1.051,-0.3019265056187318,-7.0,-0.31822501032617,-0.0725365832361123,-0.2456884270900576
217,Pilot,d09302021,d1IcC,interference,0.0,2.0,23.0,33.0,32.0,Kupc1n.jpg,Macka1.jpg,4.0,33.0,1.0,,,1.0,33.0,32.0,0.712,-0.8560600607087394,-29.0,-1.0552902915963431,-0.0374382365089612,-1.0178520550873815
218,Pilot,d09302021,d1IcC,interference,0.0,2.0,24.0,17.0,29.0,Picab1.jpg,Clifb1.jpg,12.0,6.0,1.0,,,0.0,29.0,17.0,0.944,-0.4768300171073183,6.0,-0.7745035177791344,-0.985093598142041,0.2105900803629066
219,Pilot,d09302021,d1IcC,interference,0.0,2.0,25.0,59.0,45.0,Kraa1n.jpg,Klia1n.jpg,21.0,15.0,1.0,,,0.0,45.0,59.0,1.346,0.1802841101675581,6.0,-0.4586183972347745,-0.6692084775976811,0.2105900803629066
220,Pilot,d09302021,d1IcC,interference,0.0,2.0,26.0,10.0,55.0,Stera1.jpg,Lewic1.jpg,11.0,51.0,1.0,,,1.0,10.0,55.0,1.281,0.0740343134688838,-40.0,-0.8096018645062855,0.5943320045797585,-1.403933869086044
221,Pilot,d09302021,d1IcC,interference,0.0,2.0,27.0,50.0,54.0,Gorke1.jpg,Kupka1.jpg,36.0,18.0,1.0,,,0.0,54.0,50.0,1.213,-0.0371193200004979,18.0,0.067856803672492,-0.5639134374162278,0.6317702410887198
222,Pilot,d09302021,d1IcC,interference,1.0,2.0,28.0,42.0,23.0,Picc1n.jpg,Lewib1.jpg,14.0,7.0,0.0,,1.0,0.0,23.0,42.0,1.404,0.2750916210679132,7.0,-0.7043068243248322,-0.9499952514148898,0.2456884270900576
223,Pilot,d09302021,d1IcC,interference,1.0,2.0,29.0,41.0,13.0,Vincb1.jpg,Picak1.jpg,32.0,67.0,0.0,,1.0,0.0,13.0,41.0,1.575,0.554610316998271,-35.0,-0.0725365832361123,1.155905552214176,-1.2284421354502886
224,Pilot,d09302021,d1IcC,interference,1.0,2.0,30.0,19.0,31.0,Macc1n.jpg,Maca1n.jpg,30.0,62.0,0.0,,0.0,1.0,19.0,31.0,1.152,-0.1368306676715615,-32.0,-0.1427332766904145,0.9804138185784206,-1.1231470952688352
225,Pilot,d09302021,d1IcC,interference,1.0,2.0,31.0,27.0,16.0,Vinb1n.jpg,Lewa1n.jpg,23.0,16.0,0.0,,0.0,1.0,27.0,16.0,1.066,-0.2774073217651915,7.0,-0.3884217037804723,-0.6341101308705299,0.2456884270900576
226,Pilot,d09302021,d1IcC,interference,0.0,3.0,32.0,10.0,55.0,Stera1.jpg,Lewic1.jpg,11.0,51.0,0.0,,,1.0,10.0,55.0,1.347,0.1819187224244606,-40.0,-0.8096018645062855,0.5943320045797585,-1.403933869086044
227,Pilot,d09302021,d1IcC,interference,0.0,3.0,33.0,59.0,45.0,Kraa1n.jpg,Klia1n.jpg,21.0,15.0,0.0,,,0.0,45.0,59.0,1.199,-0.0600038915971354,6.0,-0.4586183972347745,-0.6692084775976811,0.2105900803629066
228,Pilot,d09302021,d1IcC,interference,0.0,3.0,34.0,12.0,38.0,Kupkc1.jpg,Lasc1n.jpg,65.0,59.0,0.0,,,1.0,12.0,38.0,0.718,-0.8462523871673233,6.0,1.0857088587598738,0.8751187783969673,0.2105900803629065
229,Pilot,d09302021,d1IcC,interference,1.0,3.0,35.0,46.0,58.0,Deka1n.jpg,Mackc1.jpg,62.0,68.0,0.0,,0.0,1.0,46.0,58.0,0.797,-0.7171180188720118,-6.0,0.9804138185784206,1.1910038989413272,-0.2105900803629066
230,Pilot,d09302021,d1IcC,interference,1.0,3.0,36.0,27.0,16.0,Vinb1n.jpg,Lewa1n.jpg,23.0,16.0,0.0,,0.0,1.0,27.0,16.0,0.69,-0.8920215303605984,7.0,-0.3884217037804723,-0.6341101308705299,0.2456884270900576
231,Pilot,d09302021,d1IcC,interference,1.0,3.0,37.0,41.0,13.0,Vincb1.jpg,Picak1.jpg,32.0,67.0,0.0,,1.0,0.0,13.0,41.0,0.907,-0.5373106706127172,-35.0,-0.0725365832361123,1.155905552214176,-1.2284421354502886
232,Pilot,d09302021,d1IcC,interference,0.0,3.0,38.0,22.0,15.0,Macb1n.jpg,Clia1n.jpg,25.0,32.0,0.0,,,1.0,22.0,15.0,0.692,-0.888752305846793,-7.0,-0.31822501032617,-0.0725365832361123,-0.2456884270900576
233,Pilot,d09302021,d1IcC,interference,1.0,3.0,39.0,42.0,23.0,Picc1n.jpg,Lewib1.jpg,14.0,7.0,0.0,,1.0,0.0,23.0,42.0,0.824,-0.6729834879356396,7.0,-0.7043068243248322,-0.9499952514148898,0.2456884270900576
234,Pilot,d09302021,d1IcC,interference,1.0,3.0,40.0,19.0,31.0,Macc1n.jpg,Maca1n.jpg,30.0,62.0,0.0,,0.0,1.0,19.0,31.0,0.979,-0.4196185881157245,-32.0,-0.1427332766904145,0.9804138185784206,-1.1231470952688352
235,Pilot,d09302021,d1IcC,interference,0.0,3.0,41.0,33.0,32.0,Kupc1n.jpg,Macka1.jpg,4.0,33.0,0.0,,,1.0,33.0,32.0,1.901,1.087493912748544,-29.0,-1.0552902915963431,-0.0374382365089612,-1.0178520550873815
236,Pilot,d09302021,d1IcC,interference,0.0,3.0,42.0,50.0,54.0,Gorke1.jpg,Kupka1.jpg,36.0,18.0,0.0,,,0.0,54.0,50.0,0.847,-0.6353874060268779,18.0,0.067856803672492,-0.5639134374162278,0.6317702410887198
237,Pilot,d09302021,d1IcC,interference,0.0,3.0,43.0,8.0,5.0,Klina1.jpg,Kupb1n.jpg,21.0,64.0,0.0,,,0.0,5.0,8.0,0.669,-0.9263483877555544,-43.0,-0.4586183972347745,1.0506105120327227,-1.509228909267497
238,Pilot,d09302021,d1IcC,interference,1.0,3.0,44.0,3.0,34.0,Fogeg1.jpg,Monb1n.jpg,11.0,50.0,0.0,,0.0,1.0,3.0,34.0,0.728,-0.8299062645982965,-39.0,-0.8096018645062855,0.5592336578526074,-1.3688355223588928
239,Pilot,d09302021,d1IcC,interference,0.0,3.0,45.0,17.0,29.0,Picab1.jpg,Clifb1.jpg,12.0,6.0,0.0,,,0.0,29.0,17.0,0.715,-0.8511562239380314,6.0,-0.7745035177791344,-0.985093598142041,0.2105900803629066
240,Pilot,d09302021,d1IcC,interference,1.0,3.0,46.0,4.0,44.0,Mackb1.jpg,Lassf1.jpg,9.0,41.0,0.0,,1.0,0.0,44.0,4.0,0.714,-0.852790836194934,-32.0,-0.8797985579605877,0.2433485373082475,-1.1231470952688352
241,Pilot,d09302021,d1IcC,interference,1.0,3.0,47.0,24.0,25.0,Dekoa1.jpg,Clifa1.jpg,19.0,65.0,0.0,,1.0,0.0,25.0,24.0,0.848,-0.6337527937699753,-46.0,-0.5288150906890767,1.0857088587598738,-1.6145239494489505
242,Pilot,d10012021,BAWYi,interference,1.0,1.0,0.0,3.0,40.0,Fogeg1.jpg,Krab1n.jpg,54.0,47.0,1.0,,0.0,1.0,3.0,40.0,4.307,1.51689227654531,7.0,0.0499917180865426,-0.2587806583303387,0.3087723764168814
243,Pilot,d10012021,BAWYi,interference,0.0,1.0,1.0,33.0,30.0,Kupc1n.jpg,Lasse1.jpg,73.0,51.0,0.0,,,1.0,33.0,30.0,2.436,0.2593661614722353,22.0,0.888088168360935,-0.082339300377835,0.97042746873877
244,Pilot,d10012021,BAWYi,interference,1.0,1.0,2.0,5.0,0.0,Kupb1n.jpg,Gorkc1.jpg,58.0,35.0,1.0,,1.0,0.0,0.0,5.0,5.045,2.012912732410584,23.0,0.2264330760390463,-0.7881047321878496,1.014537808226896
245,Pilot,d10012021,BAWYi,interference,1.0,1.0,3.0,1.0,59.0,Lewia1.jpg,Kraa1n.jpg,56.0,34.0,1.0,,1.0,0.0,59.0,1.0,7.405,3.599102808077316,22.0,0.1382123970627945,-0.8322150716759755,0.97042746873877
246,Pilot,d10012021,BAWYi,interference,1.0,1.0,4.0,14.0,26.0,Kupkb1.jpg,Clib1n.jpg,67.0,57.0,1.0,,0.0,1.0,14.0,26.0,4.596,1.7111333493706,10.0,0.6234261314321795,0.1823227365509204,0.4411033948812591
247,Pilot,d10012021,BAWYi,interference,1.0,1.0,5.0,49.0,56.0,Hinda1.jpg,Luisc1.jpg,63.0,58.0,1.0,,0.0,1.0,49.0,56.0,4.595,1.710461234931758,5.0,0.4469847734796758,0.2264330760390463,0.2205516974406295
248,Pilot,d10012021,BAWYi,interference,1.0,1.0,6.0,22.0,51.0,Macb1n.jpg,Gora1n.jpg,60.0,60.0,1.0,,0.0,1.0,22.0,51.0,5.829,2.539850452462583,0.0,0.3146537550152981,0.3146537550152981,0.0
249,Pilot,d10012021,BAWYi,interference,0.0,1.0,7.0,9.0,32.0,Lassc1.jpg,Macka1.jpg,47.0,55.0,0.0,,,0.0,32.0,9.0,2.021,-0.0195613306471263,-8.0,-0.2587806583303387,0.0941020575746686,-0.3528827159050073
250,Pilot,d10012021,BAWYi,interference,0.0,1.0,8.0,8.0,4.0,Klina1.jpg,Mackb1.jpg,63.0,71.0,0.0,,,0.0,4.0,8.0,1.374,-0.4544193725777938,-8.0,0.4469847734796758,0.7998674893846832,-0.3528827159050073
251,Pilot,d10012021,BAWYi,interference,1.0,1.0,9.0,47.0,23.0,Kupkd1.jpg,Lewib1.jpg,67.0,62.0,1.0,,1.0,0.0,23.0,47.0,4.07,1.3576011545397948,5.0,0.6234261314321795,0.40287443399155,0.2205516974406295
252,Pilot,d10012021,BAWYi,interference,1.0,1.0,10.0,18.0,37.0,Krasb1.jpg,Mondb1.jpg,43.0,64.0,1.0,,1.0,0.0,37.0,18.0,3.581,1.028937193946137,-21.0,-0.4352220162828423,0.4910951129678018,-0.926317129250644
253,Pilot,d10012021,BAWYi,interference,0.0,1.0,11.0,55.0,31.0,Lewic1.jpg,Maca1n.jpg,56.0,55.0,0.0,,,0.0,31.0,55.0,3.076,0.6895194023310102,1.0,0.1382123970627945,0.0941020575746686,0.0441103394881259
254,Pilot,d10012021,BAWYi,interference,0.0,1.0,12.0,16.0,27.0,Lewa1n.jpg,Vinb1n.jpg,39.0,55.0,0.0,,,1.0,16.0,27.0,1.781,-0.1808687959691669,-16.0,-0.611663374235346,0.0941020575746686,-0.7057654318100146
255,Pilot,d10012021,BAWYi,interference,0.0,1.0,13.0,15.0,13.0,Clia1n.jpg,Picak1.jpg,44.0,72.0,0.0,,,0.0,13.0,15.0,1.814,-0.1586890194873862,-28.0,-0.3911116767947164,0.8439778288728091,-1.2350895056675255
256,Pilot,d10012021,BAWYi,interference,0.0,1.0,14.0,39.0,24.0,Dekb1n.jpg,Dekoa1.jpg,37.0,44.0,0.0,,,1.0,39.0,24.0,1.23,-0.5512038517710182,-7.0,-0.6998840532115979,-0.3911116767947164,-0.3087723764168814
257,Pilot,d10012021,BAWYi,interference,0.0,1.0,15.0,53.0,45.0,Gorka1.jpg,Klia1n.jpg,59.0,45.0,0.0,,,1.0,53.0,45.0,2.286,0.1585489956459601,14.0,0.2705434155271722,-0.3470013373065905,0.6175447528337628
258,Pilot,d10012021,BAWYi,interference,1.0,2.0,16.0,5.0,0.0,Kupb1n.jpg,Gorkc1.jpg,58.0,35.0,0.0,,1.0,0.0,0.0,5.0,2.588,0.3615275561761944,23.0,0.2264330760390463,-0.7881047321878496,1.014537808226896
259,Pilot,d10012021,BAWYi,interference,0.0,2.0,17.0,15.0,13.0,Clia1n.jpg,Picak1.jpg,44.0,72.0,1.0,,,0.0,13.0,15.0,0.855,-0.8032467663367066,-28.0,-0.3911116767947164,0.8439778288728091,-1.2350895056675255
260,Pilot,d10012021,BAWYi,interference,1.0,2.0,18.0,47.0,23.0,Kupkd1.jpg,Lewib1.jpg,67.0,62.0,0.0,,1.0,0.0,23.0,47.0,1.198,-0.5727115138139569,5.0,0.6234261314321795,0.40287443399155,0.2205516974406295
261,Pilot,d10012021,BAWYi,interference,0.0,2.0,19.0,8.0,4.0,Klina1.jpg,Mackb1.jpg,63.0,71.0,1.0,,,0.0,4.0,8.0,1.255,-0.5344009907999724,-8.0,0.4469847734796758,0.7998674893846832,-0.3528827159050073
262,Pilot,d10012021,BAWYi,interference,1.0,2.0,20.0,14.0,26.0,Kupkb1.jpg,Clib1n.jpg,67.0,57.0,0.0,,0.0,1.0,14.0,26.0,2.293,0.163253796717853,10.0,0.6234261314321795,0.1823227365509204,0.4411033948812591
263,Pilot,d10012021,BAWYi,interference,1.0,2.0,21.0,22.0,51.0,Macb1n.jpg,Gora1n.jpg,60.0,60.0,0.0,,0.0,1.0,22.0,51.0,1.494,-0.3737656399167736,0.0,0.3146537550152981,0.3146537550152981,0.0
264,Pilot,d10012021,BAWYi,interference,1.0,2.0,22.0,3.0,40.0,Fogeg1.jpg,Krab1n.jpg,54.0,47.0,0.0,,0.0,1.0,3.0,40.0,1.278,-0.5189423587066101,7.0,0.0499917180865426,-0.2587806583303387,0.3087723764168814
265,Pilot,d10012021,BAWYi,interference,1.0,2.0,23.0,18.0,37.0,Krasb1.jpg,Mondb1.jpg,43.0,64.0,0.0,,1.0,0.0,37.0,18.0,1.55,-0.3361272313416308,-21.0,-0.4352220162828423,0.4910951129678018,-0.926317129250644
266,Pilot,d10012021,BAWYi,interference,0.0,2.0,24.0,33.0,30.0,Kupc1n.jpg,Lasse1.jpg,73.0,51.0,1.0,,,1.0,33.0,30.0,1.31,-0.4974346966636713,22.0,0.888088168360935,-0.082339300377835,0.97042746873877
267,Pilot,d10012021,BAWYi,interference,0.0,2.0,25.0,16.0,27.0,Lewa1n.jpg,Vinb1n.jpg,39.0,55.0,1.0,,,1.0,16.0,27.0,1.228,-0.5525480806487019,-16.0,-0.611663374235346,0.0941020575746686,-0.7057654318100146
268,Pilot,d10012021,BAWYi,interference,0.0,2.0,26.0,9.0,32.0,Lassc1.jpg,Macka1.jpg,47.0,55.0,1.0,,,0.0,32.0,9.0,1.26,-0.5310404186057631,-8.0,-0.2587806583303387,0.0941020575746686,-0.3528827159050073
269,Pilot,d10012021,BAWYi,interference,0.0,2.0,27.0,53.0,45.0,Gorka1.jpg,Klia1n.jpg,59.0,45.0,1.0,,,1.0,53.0,45.0,2.275,0.1511557368186998,14.0,0.2705434155271722,-0.3470013373065905,0.6175447528337628
270,Pilot,d10012021,BAWYi,interference,1.0,2.0,28.0,1.0,59.0,Lewia1.jpg,Kraa1n.jpg,56.0,34.0,0.0,,1.0,0.0,59.0,1.0,1.844,-0.1385255863221311,22.0,0.1382123970627945,-0.8322150716759755,0.97042746873877
271,Pilot,d10012021,BAWYi,interference,0.0,2.0,29.0,55.0,31.0,Lewic1.jpg,Maca1n.jpg,56.0,55.0,1.0,,,0.0,31.0,55.0,1.59,-0.3092426537879573,1.0,0.1382123970627945,0.0941020575746686,0.0441103394881259
272,Pilot,d10012021,BAWYi,interference,1.0,2.0,30.0,49.0,56.0,Hinda1.jpg,Luisc1.jpg,63.0,58.0,0.0,,0.0,1.0,49.0,56.0,1.467,-0.3919127297655031,5.0,0.4469847734796758,0.2264330760390463,0.2205516974406295
273,Pilot,d10012021,BAWYi,interference,0.0,2.0,31.0,39.0,24.0,Dekb1n.jpg,Dekoa1.jpg,37.0,44.0,1.0,,,1.0,39.0,24.0,1.062,-0.6641190774964465,-7.0,-0.6998840532115979,-0.3911116767947164,-0.3087723764168814
274,Pilot,d10012021,BAWYi,interference,1.0,3.0,32.0,14.0,26.0,Kupkb1.jpg,Clib1n.jpg,67.0,57.0,0.0,,0.0,1.0,14.0,26.0,1.812,-0.1600332483650699,10.0,0.6234261314321795,0.1823227365509204,0.4411033948812591
275,Pilot,d10012021,BAWYi,interference,0.0,3.0,33.0,8.0,4.0,Klina1.jpg,Mackb1.jpg,63.0,71.0,0.0,,,0.0,4.0,8.0,1.102,-0.637234499942773,-8.0,0.4469847734796758,0.7998674893846832,-0.3528827159050073
276,Pilot,d10012021,BAWYi,interference,1.0,3.0,34.0,49.0,56.0,Hinda1.jpg,Luisc1.jpg,63.0,58.0,0.0,,0.0,1.0,49.0,56.0,0.894,-0.7770343032218748,5.0,0.4469847734796758,0.2264330760390463,0.2205516974406295
277,Pilot,d10012021,BAWYi,interference,0.0,3.0,35.0,15.0,13.0,Clia1n.jpg,Picak1.jpg,44.0,72.0,0.0,,,0.0,13.0,15.0,1.047,-0.6742007940790741,-28.0,-0.3911116767947164,0.8439778288728091,-1.2350895056675255
278,Pilot,d10012021,BAWYi,interference,0.0,3.0,36.0,16.0,27.0,Lewa1n.jpg,Vinb1n.jpg,39.0,55.0,0.0,,,1.0,16.0,27.0,0.806,-0.8361803738399564,-16.0,-0.611663374235346,0.0941020575746686,-0.7057654318100146
279,Pilot,d10012021,BAWYi,interference,1.0,3.0,37.0,3.0,40.0,Fogeg1.jpg,Krab1n.jpg,54.0,47.0,0.0,,0.0,1.0,3.0,40.0,2.982,0.6263406450798776,7.0,0.0499917180865426,-0.2587806583303387,0.3087723764168814
280,Pilot,d10012021,BAWYi,interference,1.0,3.0,38.0,5.0,0.0,Kupb1n.jpg,Gorkc1.jpg,58.0,35.0,0.0,,1.0,0.0,0.0,5.0,1.174,-0.588842260346161,23.0,0.2264330760390463,-0.7881047321878496,1.014537808226896
281,Pilot,d10012021,BAWYi,interference,0.0,3.0,39.0,53.0,45.0,Gorka1.jpg,Klia1n.jpg,59.0,45.0,0.0,,,1.0,53.0,45.0,1.031,-0.6849546251005435,14.0,0.2705434155271722,-0.3470013373065905,0.6175447528337628
282,Pilot,d10012021,BAWYi,interference,0.0,3.0,40.0,39.0,24.0,Dekb1n.jpg,Dekoa1.jpg,37.0,44.0,0.0,,,1.0,39.0,24.0,0.926,-0.7555266411789361,-7.0,-0.6998840532115979,-0.3911116767947164,-0.3087723764168814
283,Pilot,d10012021,BAWYi,interference,0.0,3.0,41.0,33.0,30.0,Kupc1n.jpg,Lasse1.jpg,73.0,51.0,0.0,,,1.0,33.0,30.0,0.79,-0.8469342048614258,22.0,0.888088168360935,-0.082339300377835,0.97042746873877
284,Pilot,d10012021,BAWYi,interference,1.0,3.0,42.0,18.0,37.0,Krasb1.jpg,Mondb1.jpg,43.0,64.0,0.0,,1.0,0.0,37.0,18.0,0.847,-0.8086236818474412,-21.0,-0.4352220162828423,0.4910951129678018,-0.926317129250644
285,Pilot,d10012021,BAWYi,interference,1.0,3.0,43.0,47.0,23.0,Kupkd1.jpg,Lewib1.jpg,67.0,62.0,0.0,,1.0,0.0,23.0,47.0,0.959,-0.7333468646971556,5.0,0.6234261314321795,0.40287443399155,0.2205516974406295
286,Pilot,d10012021,BAWYi,interference,0.0,3.0,44.0,55.0,31.0,Lewic1.jpg,Maca1n.jpg,56.0,55.0,0.0,,,0.0,31.0,55.0,1.055,-0.6688238785683395,1.0,0.1382123970627945,0.0941020575746686,0.0441103394881259
287,Pilot,d10012021,BAWYi,interference,0.0,3.0,45.0,9.0,32.0,Lassc1.jpg,Macka1.jpg,47.0,55.0,0.0,,,0.0,32.0,9.0,0.886,-0.7824112187326095,-8.0,-0.2587806583303387,0.0941020575746686,-0.3528827159050073
288,Pilot,d10012021,BAWYi,interference,1.0,3.0,46.0,1.0,59.0,Lewia1.jpg,Kraa1n.jpg,56.0,34.0,0.0,,1.0,0.0,59.0,1.0,1.134,-0.6157268378998345,22.0,0.1382123970627945,-0.8322150716759755,0.97042746873877
289,Pilot,d10012021,BAWYi,interference,1.0,3.0,47.0,22.0,51.0,Macb1n.jpg,Gora1n.jpg,60.0,60.0,0.0,,0.0,1.0,22.0,51.0,0.967,-0.7279699491864209,0.0,0.3146537550152981,0.3146537550152981,0.0
338,Pilot,d10012021,OH30k,interference,0.0,1.0,0.0,17.0,47.0,Picab1.jpg,Kupkd1.jpg,23.0,18.0,0.0,,,1.0,17.0,47.0,1.042,0.5327612485624784,5.0,0.1259426357872161,-0.2676281010478339,0.39357073683505
339,Pilot,d10012021,OH30k,interference,0.0,1.0,1.0,44.0,27.0,Lassf1.jpg,Vinb1n.jpg,19.0,17.0,0.0,,,1.0,44.0,27.0,0.843,-0.0517707346983528,2.0,-0.1889139536808239,-0.3463422484148439,0.15742829473402
340,Pilot,d10012021,OH30k,interference,1.0,1.0,2.0,50.0,36.0,Gorke1.jpg,Gorkf1.jpg,20.0,16.0,1.0,,0.0,1.0,50.0,36.0,1.356,1.4550880965217798,4.0,-0.1101998063138138,-0.4250563957818539,0.31485658946804
341,Pilot,d10012021,OH30k,interference,1.0,1.0,3.0,35.0,2.0,Wdeka1.jpg,Dekob1.jpg,17.0,17.0,1.0,,1.0,0.0,2.0,35.0,1.852,2.9120120346995297,0.0,-0.3463422484148439,-0.3463422484148439,0.0
342,Pilot,d10012021,OH30k,interference,0.0,1.0,4.0,4.0,54.0,Mackb1.jpg,Kupka1.jpg,23.0,17.0,0.0,,,0.0,54.0,4.0,0.812,-0.1428284808344619,6.0,0.1259426357872161,-0.3463422484148439,0.47228488420206
343,Pilot,d10012021,OH30k,interference,0.0,1.0,5.0,5.0,53.0,Kupb1n.jpg,Gorka1.jpg,22.0,18.0,0.0,,,1.0,5.0,53.0,0.775,-0.2515103068678829,4.0,0.0472284884202061,-0.2676281010478339,0.31485658946804
344,Pilot,d10012021,OH30k,interference,1.0,1.0,6.0,7.0,25.0,Pica1n.jpg,Clifa1.jpg,23.0,21.0,1.0,,1.0,0.0,25.0,7.0,0.923,0.1832169972658005,2.0,0.1259426357872161,-0.0314856589468038,0.15742829473402
345,Pilot,d10012021,OH30k,interference,0.0,1.0,7.0,39.0,34.0,Dekb1n.jpg,Monb1n.jpg,17.0,19.0,0.0,,,0.0,34.0,39.0,0.756,-0.3073198932093693,-2.0,-0.3463422484148439,-0.1889139536808239,-0.15742829473402
346,Pilot,d10012021,OH30k,interference,0.0,1.0,8.0,33.0,11.0,Kupc1n.jpg,Wdekb1.jpg,21.0,19.0,0.0,,,1.0,33.0,11.0,0.578,-0.8301675968296103,2.0,-0.0314856589468038,-0.1889139536808239,0.15742829473402
347,Pilot,d10012021,OH30k,interference,1.0,1.0,9.0,43.0,15.0,Picac1.jpg,Clia1n.jpg,16.0,19.0,1.0,,0.0,1.0,43.0,15.0,0.762,-0.2896958133120578,-3.0,-0.4250563957818539,-0.1889139536808239,-0.23614244210103
348,Pilot,d10012021,OH30k,interference,1.0,1.0,10.0,49.0,10.0,Hinda1.jpg,Stera1.jpg,20.0,20.0,1.0,,0.0,1.0,49.0,10.0,0.77,-0.2661970401156425,0.0,-0.1101998063138138,-0.1101998063138138,0.0
349,Pilot,d10012021,OH30k,interference,1.0,1.0,11.0,22.0,19.0,Macb1n.jpg,Macc1n.jpg,23.0,17.0,1.0,,0.0,1.0,22.0,19.0,1.642,2.295169238293627,6.0,0.1259426357872161,-0.3463422484148439,0.47228488420206
350,Pilot,d10012021,OH30k,interference,1.0,1.0,12.0,45.0,55.0,Klia1n.jpg,Lewic1.jpg,20.0,16.0,1.0,,1.0,0.0,55.0,45.0,0.996,0.3976433026830902,4.0,-0.1101998063138138,-0.4250563957818539,0.31485658946804
351,Pilot,d10012021,OH30k,interference,1.0,1.0,13.0,8.0,59.0,Klina1.jpg,Kraa1n.jpg,24.0,17.0,1.0,,1.0,0.0,59.0,8.0,2.177,3.866649695803901,7.0,0.2046567831542261,-0.3463422484148439,0.55099903156907
352,Pilot,d10012021,OH30k,interference,0.0,1.0,14.0,58.0,18.0,Mackc1.jpg,Krasb1.jpg,24.0,19.0,0.0,,,0.0,18.0,58.0,1.699,2.4625979973180865,5.0,0.2046567831542261,-0.1889139536808239,0.39357073683505
353,Pilot,d10012021,OH30k,interference,0.0,1.0,15.0,51.0,14.0,Gora1n.jpg,Kupkb1.jpg,21.0,23.0,0.0,,,0.0,14.0,51.0,0.689,-0.5041221187293478,-2.0,-0.0314856589468038,0.1259426357872161,-0.15742829473402
354,Pilot,d10012021,OH30k,interference,0.0,2.0,16.0,4.0,54.0,Mackb1.jpg,Kupka1.jpg,23.0,17.0,1.0,,,0.0,54.0,4.0,0.641,-0.6451147579078395,6.0,0.1259426357872161,-0.3463422484148439,0.47228488420206
355,Pilot,d10012021,OH30k,interference,1.0,2.0,17.0,43.0,15.0,Picac1.jpg,Clia1n.jpg,16.0,19.0,0.0,,0.0,1.0,43.0,15.0,0.644,-0.6363027179591837,-3.0,-0.4250563957818539,-0.1889139536808239,-0.23614244210103
356,Pilot,d10012021,OH30k,interference,0.0,2.0,18.0,17.0,47.0,Picab1.jpg,Kupkd1.jpg,23.0,18.0,1.0,,,1.0,17.0,47.0,0.588,-0.8007941303340911,5.0,0.1259426357872161,-0.2676281010478339,0.39357073683505
357,Pilot,d10012021,OH30k,interference,0.0,2.0,19.0,58.0,18.0,Mackc1.jpg,Krasb1.jpg,24.0,19.0,1.0,,,0.0,18.0,58.0,0.692,-0.495310078780692,5.0,0.2046567831542261,-0.1889139536808239,0.39357073683505
358,Pilot,d10012021,OH30k,interference,1.0,2.0,20.0,49.0,10.0,Hinda1.jpg,Stera1.jpg,20.0,20.0,0.0,,0.0,1.0,49.0,10.0,0.836,-0.0723321612452162,0.0,-0.1101998063138138,-0.1101998063138138,0.0
359,Pilot,d10012021,OH30k,interference,0.0,2.0,21.0,5.0,53.0,Kupb1n.jpg,Gorka1.jpg,22.0,18.0,1.0,,,1.0,5.0,53.0,0.62,-0.7067990375484298,4.0,0.0472284884202061,-0.2676281010478339,0.31485658946804
360,Pilot,d10012021,OH30k,interference,1.0,2.0,22.0,8.0,59.0,Klina1.jpg,Kraa1n.jpg,24.0,17.0,0.0,,1.0,0.0,59.0,8.0,0.835,-0.0752695078947681,7.0,0.2046567831542261,-0.3463422484148439,0.55099903156907
361,Pilot,d10012021,OH30k,interference,1.0,2.0,23.0,7.0,25.0,Pica1n.jpg,Clifa1.jpg,23.0,21.0,0.0,,1.0,0.0,25.0,7.0,0.776,-0.2485729602183309,2.0,0.1259426357872161,-0.0314856589468038,0.15742829473402
362,Pilot,d10012021,OH30k,interference,0.0,2.0,24.0,33.0,11.0,Kupc1n.jpg,Wdekb1.jpg,21.0,19.0,1.0,,,1.0,33.0,11.0,0.597,-0.7743580104881238,2.0,-0.0314856589468038,-0.1889139536808239,0.15742829473402
363,Pilot,d10012021,OH30k,interference,0.0,2.0,25.0,44.0,27.0,Lassf1.jpg,Vinb1n.jpg,19.0,17.0,1.0,,,1.0,44.0,27.0,0.619,-0.7097363841979817,2.0,-0.1889139536808239,-0.3463422484148439,0.15742829473402
364,Pilot,d10012021,OH30k,interference,1.0,2.0,26.0,22.0,19.0,Macb1n.jpg,Macc1n.jpg,23.0,17.0,0.0,,0.0,1.0,22.0,19.0,0.802,-0.1722019473299811,6.0,0.1259426357872161,-0.3463422484148439,0.47228488420206
365,Pilot,d10012021,OH30k,interference,0.0,2.0,27.0,51.0,14.0,Gora1n.jpg,Kupkb1.jpg,21.0,23.0,1.0,,,0.0,14.0,51.0,0.715,-0.4277511058409979,-2.0,-0.0314856589468038,0.1259426357872161,-0.15742829473402
366,Pilot,d10012021,OH30k,interference,1.0,2.0,28.0,35.0,2.0,Wdeka1.jpg,Dekob1.jpg,17.0,17.0,0.0,,1.0,0.0,2.0,35.0,0.882,0.0627857846341719,0.0,-0.3463422484148439,-0.3463422484148439,0.0
367,Pilot,d10012021,OH30k,interference,1.0,2.0,29.0,50.0,36.0,Gorke1.jpg,Gorkf1.jpg,20.0,16.0,0.0,,0.0,1.0,50.0,36.0,0.651,-0.6157412914123204,4.0,-0.1101998063138138,-0.4250563957818539,0.31485658946804
368,Pilot,d10012021,OH30k,interference,1.0,2.0,30.0,45.0,55.0,Klia1n.jpg,Lewic1.jpg,20.0,16.0,0.0,,1.0,0.0,55.0,45.0,0.617,-0.7156110774970855,4.0,-0.1101998063138138,-0.4250563957818539,0.31485658946804
369,Pilot,d10012021,OH30k,interference,0.0,2.0,31.0,39.0,34.0,Dekb1n.jpg,Monb1n.jpg,17.0,19.0,1.0,,,0.0,34.0,39.0,0.873,0.0363496647882046,-2.0,-0.3463422484148439,-0.1889139536808239,-0.15742829473402
370,Pilot,d10012021,OH30k,interference,0.0,3.0,32.0,33.0,11.0,Kupc1n.jpg,Wdekb1.jpg,21.0,19.0,0.0,,,1.0,33.0,11.0,0.803,-0.1692646006804292,2.0,-0.0314856589468038,-0.1889139536808239,0.15742829473402
371,Pilot,d10012021,OH30k,interference,1.0,3.0,33.0,7.0,25.0,Pica1n.jpg,Clifa1.jpg,23.0,21.0,0.0,,1.0,0.0,25.0,7.0,0.618,-0.7126737308475336,2.0,0.1259426357872161,-0.0314856589468038,0.15742829473402
372,Pilot,d10012021,OH30k,interference,1.0,3.0,34.0,49.0,10.0,Hinda1.jpg,Stera1.jpg,20.0,20.0,0.0,,0.0,1.0,49.0,10.0,0.65,-0.6186786380618723,0.0,-0.1101998063138138,-0.1101998063138138,0.0
373,Pilot,d10012021,OH30k,interference,1.0,3.0,35.0,35.0,2.0,Wdeka1.jpg,Dekob1.jpg,17.0,17.0,0.0,,1.0,0.0,2.0,35.0,0.828,-0.0958309344416315,0.0,-0.3463422484148439,-0.3463422484148439,0.0
374,Pilot,d10012021,OH30k,interference,1.0,3.0,36.0,22.0,19.0,Macb1n.jpg,Macc1n.jpg,23.0,17.0,0.0,,0.0,1.0,22.0,19.0,1.004,0.4211420758795055,6.0,0.1259426357872161,-0.3463422484148439,0.47228488420206
375,Pilot,d10012021,OH30k,interference,1.0,3.0,37.0,45.0,55.0,Klia1n.jpg,Lewic1.jpg,20.0,16.0,0.0,,1.0,0.0,55.0,45.0,0.651,-0.6157412914123204,4.0,-0.1101998063138138,-0.4250563957818539,0.31485658946804
376,Pilot,d10012021,OH30k,interference,1.0,3.0,38.0,50.0,36.0,Gorke1.jpg,Gorkf1.jpg,20.0,16.0,0.0,,0.0,1.0,50.0,36.0,0.715,-0.4277511058409979,4.0,-0.1101998063138138,-0.4250563957818539,0.31485658946804
377,Pilot,d10012021,OH30k,interference,1.0,3.0,39.0,8.0,59.0,Klina1.jpg,Kraa1n.jpg,24.0,17.0,0.0,,1.0,0.0,59.0,8.0,0.843,-0.0517707346983528,7.0,0.2046567831542261,-0.3463422484148439,0.55099903156907
378,Pilot,d10012021,OH30k,interference,0.0,3.0,40.0,51.0,14.0,Gora1n.jpg,Kupkb1.jpg,21.0,23.0,0.0,,,0.0,14.0,51.0,0.73,-0.3836909060977191,-2.0,-0.0314856589468038,0.1259426357872161,-0.15742829473402
379,Pilot,d10012021,OH30k,interference,1.0,3.0,41.0,43.0,15.0,Picac1.jpg,Clia1n.jpg,16.0,19.0,0.0,,0.0,1.0,43.0,15.0,0.634,-0.6656761844547029,-3.0,-0.4250563957818539,-0.1889139536808239,-0.23614244210103
380,Pilot,d10012021,OH30k,interference,0.0,3.0,42.0,5.0,53.0,Kupb1n.jpg,Gorka1.jpg,22.0,18.0,0.0,,,1.0,5.0,53.0,0.986,0.368269836187571,4.0,0.0472284884202061,-0.2676281010478339,0.31485658946804
381,Pilot,d10012021,OH30k,interference,0.0,3.0,43.0,17.0,47.0,Picab1.jpg,Kupkd1.jpg,23.0,18.0,0.0,,,1.0,17.0,47.0,0.811,-0.1457658274840138,5.0,0.1259426357872161,-0.2676281010478339,0.39357073683505
382,Pilot,d10012021,OH30k,interference,0.0,3.0,44.0,39.0,34.0,Dekb1n.jpg,Monb1n.jpg,17.0,19.0,0.0,,,0.0,34.0,39.0,0.989,0.3770818761362268,-2.0,-0.3463422484148439,-0.1889139536808239,-0.15742829473402
383,Pilot,d10012021,OH30k,interference,0.0,3.0,45.0,58.0,18.0,Mackc1.jpg,Krasb1.jpg,24.0,19.0,0.0,,,0.0,18.0,58.0,0.812,-0.1428284808344619,5.0,0.2046567831542261,-0.1889139536808239,0.39357073683505
384,Pilot,d10012021,OH30k,interference,0.0,3.0,46.0,44.0,27.0,Lassf1.jpg,Vinb1n.jpg,19.0,17.0,0.0,,,1.0,44.0,27.0,0.564,-0.8712904499233372,2.0,-0.1889139536808239,-0.3463422484148439,0.15742829473402
385,Pilot,d10012021,OH30k,interference,0.0,3.0,47.0,4.0,54.0,Mackb1.jpg,Kupka1.jpg,23.0,17.0,0.0,,,0.0,54.0,4.0,0.612,-0.7302978107448451,6.0,0.1259426357872161,-0.3463422484148439,0.47228488420206
386,Pilot,d09302021,c4z0I,interference,1.0,1.0,0.0,57.0,41.0,Lewc1n.jpg,Vincb1.jpg,66.0,35.0,1.0,,1.0,1.0,57.0,41.0,1.44,1.198906630099141,31.0,0.5138328376316631,-0.914760701972064,1.428593539603727
387,Pilot,d09302021,c4z0I,interference,0.0,1.0,1.0,44.0,13.0,Lassf1.jpg,Picak1.jpg,36.0,65.0,0.0,,,0.0,13.0,44.0,1.164,0.5004099927996365,-29.0,-0.8686770394042018,0.4677491750638008,-1.3364262144680028
388,Pilot,d09302021,c4z0I,interference,1.0,1.0,2.0,42.0,1.0,Picc1n.jpg,Lewia1.jpg,63.0,68.0,1.0,,1.0,0.0,1.0,42.0,0.755,-0.5346810385608602,-5.0,0.3755818499280766,0.6060001627673873,-0.2304183128393107
389,Pilot,d09302021,c4z0I,interference,0.0,1.0,3.0,32.0,29.0,Macka1.jpg,Clifb1.jpg,64.0,43.0,0.0,,,1.0,32.0,29.0,0.797,-0.4283880720152834,21.0,0.4216655124959387,-0.5460914014291667,0.9677569139251054
390,Pilot,d09302021,c4z0I,interference,1.0,1.0,4.0,40.0,30.0,Krab1n.jpg,Lasse1.jpg,34.0,36.0,1.0,,0.0,1.0,40.0,30.0,2.153,3.0033562764561927,-2.0,-0.9608443645399262,-0.8686770394042018,-0.0921673251357243
391,Pilot,d09302021,c4z0I,interference,1.0,1.0,5.0,46.0,36.0,Deka1n.jpg,Gorkf1.jpg,61.0,69.0,1.0,,0.0,1.0,46.0,36.0,2.777,4.582566065133332,-8.0,0.2834145247923522,0.6520838253352496,-0.3686693005428973
392,Pilot,d09302021,c4z0I,interference,0.0,1.0,6.0,47.0,55.0,Kupkd1.jpg,Lewic1.jpg,64.0,72.0,0.0,,,0.0,55.0,47.0,0.979,0.0322147830155487,-8.0,0.4216655124959387,0.790334813038836,-0.3686693005428973
393,Pilot,d09302021,c4z0I,interference,0.0,1.0,7.0,23.0,16.0,Lewib1.jpg,Lewa1n.jpg,75.0,67.0,0.0,,,0.0,16.0,23.0,0.87,-0.2436407730194002,8.0,0.9285858007424224,0.5599165001995252,0.3686693005428972
394,Pilot,d09302021,c4z0I,interference,0.0,1.0,8.0,27.0,58.0,Vinb1n.jpg,Mackc1.jpg,32.0,43.0,0.0,,,0.0,58.0,27.0,0.922,-0.1120399572963051,-11.0,-1.0530116896756505,-0.5460914014291667,-0.5069202882464838
395,Pilot,d09302021,c4z0I,interference,1.0,1.0,9.0,5.0,37.0,Kupb1n.jpg,Mondb1.jpg,74.0,77.0,1.0,,1.0,0.0,37.0,5.0,0.952,-0.0361164097637506,-3.0,0.8825021381745604,1.0207531258781468,-0.1382509877035864
396,Pilot,d09302021,c4z0I,interference,1.0,1.0,10.0,28.0,54.0,Krasa1.jpg,Kupka1.jpg,67.0,64.0,1.0,,1.0,0.0,54.0,28.0,0.882,-0.2132713540063783,3.0,0.5599165001995252,0.4216655124959387,0.1382509877035865
397,Pilot,d09302021,c4z0I,interference,0.0,1.0,11.0,31.0,0.0,Maca1n.jpg,Gorkc1.jpg,64.0,37.0,0.0,,,0.0,0.0,31.0,0.674,-0.7396746168987581,27.0,0.4216655124959387,-0.8225933768363397,1.2442588893322784
398,Pilot,d09302021,c4z0I,interference,1.0,1.0,12.0,33.0,24.0,Kupc1n.jpg,Dekoa1.jpg,77.0,76.0,1.0,,0.0,1.0,33.0,24.0,0.741,-0.5701120274093858,1.0,1.0207531258781468,0.9746694633102848,0.0460836625678621
399,Pilot,d09302021,c4z0I,interference,0.0,1.0,13.0,49.0,17.0,Hinda1.jpg,Picab1.jpg,32.0,72.0,0.0,,,0.0,17.0,49.0,0.848,-0.2993180412099405,-40.0,-1.0530116896756505,0.790334813038836,-1.8433465027144864
400,Pilot,d09302021,c4z0I,interference,0.0,1.0,14.0,2.0,39.0,Dekob1.jpg,Dekb1n.jpg,32.0,69.0,0.0,,,0.0,39.0,2.0,0.858,-0.2740101920324222,-37.0,-1.0530116896756505,0.6520838253352496,-1.7050955150109002
401,Pilot,d09302021,c4z0I,interference,1.0,1.0,15.0,48.0,10.0,Picb1n.jpg,Stera1.jpg,38.0,35.0,1.0,,0.0,1.0,48.0,10.0,0.856,-0.2790717618679258,3.0,-0.7765097142684775,-0.914760701972064,0.1382509877035864
402,Pilot,d09302021,c4z0I,interference,0.0,2.0,16.0,27.0,58.0,Vinb1n.jpg,Mackc1.jpg,32.0,43.0,1.0,,,0.0,58.0,27.0,0.962,-0.0108085605862323,-11.0,-1.0530116896756505,-0.5460914014291667,-0.5069202882464838
403,Pilot,d09302021,c4z0I,interference,1.0,2.0,17.0,46.0,36.0,Deka1n.jpg,Gorkf1.jpg,61.0,69.0,0.0,,0.0,1.0,46.0,36.0,1.21,0.6168260990162205,-8.0,0.2834145247923522,0.6520838253352496,-0.3686693005428973
404,Pilot,d09302021,c4z0I,interference,1.0,2.0,18.0,5.0,37.0,Kupb1n.jpg,Mondb1.jpg,74.0,77.0,0.0,,1.0,1.0,5.0,37.0,1.217,0.6345415934404837,-3.0,0.8825021381745604,1.0207531258781468,-0.1382509877035864
405,Pilot,d09302021,c4z0I,interference,1.0,2.0,19.0,40.0,30.0,Krab1n.jpg,Lasse1.jpg,34.0,36.0,0.0,,0.0,1.0,40.0,30.0,1.126,0.404240165925067,-2.0,-0.9608443645399262,-0.8686770394042018,-0.0921673251357243
406,Pilot,d09302021,c4z0I,interference,1.0,2.0,20.0,42.0,1.0,Picc1n.jpg,Lewia1.jpg,63.0,68.0,0.0,,1.0,0.0,1.0,42.0,0.68,-0.7244899073922472,-5.0,0.3755818499280766,0.6060001627673873,-0.2304183128393107
407,Pilot,d09302021,c4z0I,interference,1.0,2.0,21.0,48.0,10.0,Picb1n.jpg,Stera1.jpg,38.0,35.0,0.0,,0.0,1.0,48.0,10.0,0.835,-0.3322182451407142,3.0,-0.7765097142684775,-0.914760701972064,0.1382509877035864
408,Pilot,d09302021,c4z0I,interference,0.0,2.0,22.0,31.0,0.0,Maca1n.jpg,Gorkc1.jpg,64.0,37.0,1.0,,,1.0,31.0,0.0,1.23,0.6674417973712572,27.0,0.4216655124959387,-0.8225933768363397,1.2442588893322784
409,Pilot,d09302021,c4z0I,interference,0.0,2.0,23.0,32.0,29.0,Macka1.jpg,Clifb1.jpg,64.0,43.0,1.0,,,1.0,32.0,29.0,0.789,-0.4486343513572981,21.0,0.4216655124959387,-0.5460914014291667,0.9677569139251054
410,Pilot,d09302021,c4z0I,interference,0.0,2.0,24.0,47.0,55.0,Kupkd1.jpg,Lewic1.jpg,64.0,72.0,1.0,,,1.0,47.0,55.0,1.689,1.8290720746193456,-8.0,0.4216655124959387,0.790334813038836,-0.3686693005428973
411,Pilot,d09302021,c4z0I,interference,0.0,2.0,25.0,44.0,13.0,Lassf1.jpg,Picak1.jpg,36.0,65.0,1.0,,,0.0,13.0,44.0,0.861,-0.2664178372791667,-29.0,-0.8686770394042018,0.4677491750638008,-1.3364262144680028
412,Pilot,d09302021,c4z0I,interference,0.0,2.0,26.0,23.0,16.0,Lewib1.jpg,Lewa1n.jpg,75.0,67.0,1.0,,,0.0,16.0,23.0,0.744,-0.5625196726561303,8.0,0.9285858007424224,0.5599165001995252,0.3686693005428972
413,Pilot,d09302021,c4z0I,interference,1.0,2.0,27.0,33.0,24.0,Kupc1n.jpg,Dekoa1.jpg,77.0,76.0,0.0,,0.0,1.0,33.0,24.0,0.67,-0.7497977565697654,1.0,1.0207531258781468,0.9746694633102848,0.0460836625678621
414,Pilot,d09302021,c4z0I,interference,0.0,2.0,28.0,2.0,39.0,Dekob1.jpg,Dekb1n.jpg,32.0,69.0,1.0,,,0.0,39.0,2.0,0.983,0.042337922686556,-37.0,-1.0530116896756505,0.6520838253352496,-1.7050955150109002
415,Pilot,d09302021,c4z0I,interference,0.0,2.0,29.0,49.0,17.0,Hinda1.jpg,Picab1.jpg,32.0,72.0,1.0,,,0.0,17.0,49.0,0.869,-0.2461715579371521,-40.0,-1.0530116896756505,0.790334813038836,-1.8433465027144864
416,Pilot,d09302021,c4z0I,interference,1.0,2.0,30.0,57.0,41.0,Lewc1n.jpg,Vincb1.jpg,66.0,35.0,0.0,,1.0,1.0,57.0,41.0,1.15,0.4649790039511108,31.0,0.5138328376316631,-0.914760701972064,1.428593539603727
417,Pilot,d09302021,c4z0I,interference,1.0,2.0,31.0,28.0,54.0,Krasa1.jpg,Kupka1.jpg,67.0,64.0,0.0,,1.0,0.0,54.0,28.0,0.765,-0.509373189383342,3.0,0.5599165001995252,0.4216655124959387,0.1382509877035865
418,Pilot,d09302021,c4z0I,interference,0.0,3.0,32.0,49.0,17.0,Hinda1.jpg,Picab1.jpg,32.0,72.0,0.0,,,0.0,17.0,49.0,1.317,0.8876200852156659,-40.0,-1.0530116896756505,0.790334813038836,-1.8433465027144864
419,Pilot,d09302021,c4z0I,interference,0.0,3.0,33.0,2.0,39.0,Dekob1.jpg,Dekb1n.jpg,32.0,69.0,0.0,,,0.0,39.0,2.0,0.971,0.0119685036735341,-37.0,-1.0530116896756505,0.6520838253352496,-1.7050955150109002
420,Pilot,d09302021,c4z0I,interference,1.0,3.0,34.0,5.0,37.0,Kupb1n.jpg,Mondb1.jpg,74.0,77.0,0.0,,1.0,0.0,37.0,5.0,1.092,0.3181934787215054,-3.0,0.8825021381745604,1.0207531258781468,-0.1382509877035864
421,Pilot,d09302021,c4z0I,interference,0.0,3.0,35.0,47.0,55.0,Kupkd1.jpg,Lewic1.jpg,64.0,72.0,0.0,,,1.0,47.0,55.0,0.792,-0.4410419966040426,-8.0,0.4216655124959387,0.790334813038836,-0.3686693005428973
422,Pilot,d09302021,c4z0I,interference,0.0,3.0,36.0,32.0,29.0,Macka1.jpg,Clifb1.jpg,64.0,43.0,0.0,,,1.0,32.0,29.0,0.66,-0.7751056057472837,21.0,0.4216655124959387,-0.5460914014291667,0.9677569139251054
423,Pilot,d09302021,c4z0I,interference,1.0,3.0,37.0,57.0,41.0,Lewc1n.jpg,Vincb1.jpg,66.0,35.0,0.0,,1.0,0.0,41.0,57.0,0.957,-0.0234624851749914,31.0,0.5138328376316631,-0.914760701972064,1.428593539603727
424,Pilot,d09302021,c4z0I,interference,0.0,3.0,38.0,27.0,58.0,Vinb1n.jpg,Mackc1.jpg,32.0,43.0,0.0,,,0.0,58.0,27.0,0.85,-0.2942564713744368,-11.0,-1.0530116896756505,-0.5460914014291667,-0.5069202882464838
425,Pilot,d09302021,c4z0I,interference,1.0,3.0,39.0,40.0,30.0,Krab1n.jpg,Lasse1.jpg,34.0,36.0,0.0,,0.0,1.0,40.0,30.0,0.765,-0.509373189383342,-2.0,-0.9608443645399262,-0.8686770394042018,-0.0921673251357243
426,Pilot,d09302021,c4z0I,interference,1.0,3.0,40.0,42.0,1.0,Picc1n.jpg,Lewia1.jpg,63.0,68.0,0.0,,1.0,0.0,1.0,42.0,0.546,-1.063615086370992,-5.0,0.3755818499280766,0.6060001627673873,-0.2304183128393107
427,Pilot,d09302021,c4z0I,interference,0.0,3.0,41.0,23.0,16.0,Lewib1.jpg,Lewa1n.jpg,75.0,67.0,0.0,,,0.0,16.0,23.0,0.602,-0.9218911309768898,8.0,0.9285858007424224,0.5599165001995252,0.3686693005428972
428,Pilot,d09302021,c4z0I,interference,0.0,3.0,42.0,31.0,0.0,Maca1n.jpg,Gorkc1.jpg,64.0,37.0,0.0,,,1.0,31.0,0.0,0.658,-0.7801671755827874,27.0,0.4216655124959387,-0.8225933768363397,1.2442588893322784
429,Pilot,d09302021,c4z0I,interference,1.0,3.0,43.0,28.0,54.0,Krasa1.jpg,Kupka1.jpg,67.0,64.0,0.0,,1.0,0.0,54.0,28.0,0.761,-0.5194963290543493,3.0,0.5599165001995252,0.4216655124959387,0.1382509877035865
430,Pilot,d09302021,c4z0I,interference,1.0,3.0,44.0,48.0,10.0,Picb1n.jpg,Stera1.jpg,38.0,35.0,0.0,,0.0,0.0,10.0,48.0,0.923,-0.1095091723785533,3.0,-0.7765097142684775,-0.914760701972064,0.1382509877035864
431,Pilot,d09302021,c4z0I,interference,1.0,3.0,45.0,46.0,36.0,Deka1n.jpg,Gorkf1.jpg,61.0,69.0,0.0,,0.0,1.0,46.0,36.0,0.715,-0.6359124352709334,-8.0,0.2834145247923522,0.6520838253352496,-0.3686693005428973
432,Pilot,d09302021,c4z0I,interference,1.0,3.0,46.0,33.0,24.0,Kupc1n.jpg,Dekoa1.jpg,77.0,76.0,0.0,,0.0,0.0,24.0,33.0,0.611,-0.8991140667171232,1.0,1.0207531258781468,0.9746694633102848,0.0460836625678621
433,Pilot,d09302021,c4z0I,interference,0.0,3.0,47.0,44.0,13.0,Lassf1.jpg,Picak1.jpg,36.0,65.0,0.0,,,0.0,13.0,44.0,0.713,-0.6409740051064371,-29.0,-0.8686770394042018,0.4677491750638008,-1.3364262144680028
434,Pilot,d09302021,h3ty7,interference,0.0,1.0,0.0,53.0,52.0,Gorka1.jpg,Picaa1.jpg,66.0,84.0,0.0,,,0.0,52.0,53.0,0.966,-0.500916390493285,-18.0,-0.0673621339183475,1.069373875953772,-1.1367360098721195
435,Pilot,d09302021,h3ty7,interference,1.0,1.0,1.0,33.0,44.0,Kupc1n.jpg,Lassf1.jpg,57.0,78.0,1.0,,1.0,0.0,44.0,33.0,1.562,-0.1801863972248898,-21.0,-0.6357301388544073,0.6904618726630654,-1.3261920115174726
436,Pilot,d09302021,h3ty7,interference,0.0,1.0,2.0,23.0,35.0,Lewib1.jpg,Wdeka1.jpg,84.0,67.0,0.0,,,0.0,35.0,23.0,1.825,-0.0386562156316216,17.0,1.069373875953772,-0.0042101333698964,1.0735840093236684
437,Pilot,d09302021,h3ty7,interference,1.0,1.0,3.0,12.0,51.0,Kupkc1.jpg,Gora1n.jpg,60.0,59.0,1.0,,0.0,1.0,12.0,51.0,1.125,-0.4153525164502064,1.0,-0.446274137209054,-0.5094261377575051,0.0631520005484511
438,Pilot,d09302021,h3ty7,interference,0.0,1.0,4.0,30.0,37.0,Lasse1.jpg,Mondb1.jpg,69.0,69.0,0.0,,,1.0,30.0,37.0,1.682,-0.1156098885131325,0.0,0.1220938677270056,0.1220938677270056,0.0
439,Pilot,d09302021,h3ty7,interference,1.0,1.0,5.0,18.0,0.0,Krasb1.jpg,Gorkc1.jpg,55.0,70.0,1.0,,1.0,0.0,0.0,18.0,2.068,0.0921112145096871,-15.0,-0.7620341399513094,0.1852458682754567,-0.9472800082267662
440,Pilot,d09302021,h3ty7,interference,0.0,1.0,6.0,29.0,10.0,Clifb1.jpg,Stera1.jpg,55.0,68.0,0.0,,,1.0,29.0,10.0,1.698,-0.1069996873515648,-13.0,-0.7620341399513094,0.0589418671785545,-0.820976007129864
441,Pilot,d09302021,h3ty7,interference,1.0,1.0,7.0,47.0,26.0,Kupkd1.jpg,Clib1n.jpg,68.0,54.0,1.0,,0.0,1.0,47.0,26.0,5.021,1.681231466391517,14.0,0.0589418671785545,-0.8251861404997605,0.884128007678315
442,Pilot,d09302021,h3ty7,interference,0.0,1.0,8.0,54.0,3.0,Kupka1.jpg,Fogeg1.jpg,69.0,60.0,0.0,,,1.0,54.0,3.0,1.881,-0.0085205115661347,9.0,0.1220938677270056,-0.446274137209054,0.5683680049360597
443,Pilot,d09302021,h3ty7,interference,1.0,1.0,9.0,13.0,36.0,Picak1.jpg,Gorkf1.jpg,71.0,63.0,1.0,,1.0,0.0,36.0,13.0,7.189,2.8479137237839343,8.0,0.2483978688239078,-0.2568181355637008,0.5052160043876086
444,Pilot,d09302021,h3ty7,interference,1.0,1.0,10.0,11.0,25.0,Wdekb1.jpg,Clifa1.jpg,56.0,75.0,1.0,,1.0,0.0,25.0,11.0,6.983,2.73705738382875,-19.0,-0.6988821394028584,0.5010058710177121,-1.1998880104205705
445,Pilot,d09302021,h3ty7,interference,1.0,1.0,11.0,16.0,5.0,Lewa1n.jpg,Kupb1n.jpg,80.0,79.0,1.0,,0.0,1.0,16.0,5.0,4.322,1.3050733031455304,1.0,0.8167658737599675,0.7536138732115164,0.063152000548451
446,Pilot,d09302021,h3ty7,interference,0.0,1.0,12.0,27.0,1.0,Vinb1n.jpg,Lewia1.jpg,79.0,83.0,0.0,,,0.0,1.0,27.0,1.839,-0.0311222896152499,-4.0,0.7536138732115164,1.0062218754053207,-0.2526080021938043
447,Pilot,d09302021,h3ty7,interference,1.0,1.0,13.0,39.0,15.0,Dekb1n.jpg,Clia1n.jpg,79.0,58.0,1.0,,0.0,1.0,39.0,15.0,1.589,-0.1656566827647445,21.0,0.7536138732115164,-0.5725781383059562,1.3261920115174726
448,Pilot,d09302021,h3ty7,interference,0.0,1.0,14.0,59.0,28.0,Kraa1n.jpg,Krasa1.jpg,63.0,74.0,0.0,,,0.0,28.0,59.0,1.847,-0.026817189034466,-11.0,-0.2568181355637008,0.437853870469261,-0.6946720060329619
449,Pilot,d09302021,h3ty7,interference,0.0,1.0,15.0,57.0,14.0,Lewc1n.jpg,Kupkb1.jpg,64.0,63.0,0.0,,,1.0,57.0,14.0,0.956,-0.5062977662192648,1.0,-0.1936661350152497,-0.2568181355637008,0.063152000548451
450,Pilot,d09302021,h3ty7,interference,1.0,2.0,16.0,39.0,15.0,Dekb1n.jpg,Clia1n.jpg,79.0,58.0,0.0,,0.0,1.0,39.0,15.0,1.009,-0.477776474871572,21.0,0.7536138732115164,-0.5725781383059562,1.3261920115174726
451,Pilot,d09302021,h3ty7,interference,1.0,2.0,17.0,13.0,36.0,Picak1.jpg,Gorkf1.jpg,71.0,63.0,0.0,,1.0,0.0,36.0,13.0,1.067,-0.4465644956608892,8.0,0.2483978688239078,-0.2568181355637008,0.5052160043876086
452,Pilot,d09302021,h3ty7,interference,1.0,2.0,18.0,16.0,5.0,Lewa1n.jpg,Kupb1n.jpg,80.0,79.0,0.0,,0.0,1.0,16.0,5.0,1.174,-0.3889837753929055,1.0,0.8167658737599675,0.7536138732115164,0.063152000548451
453,Pilot,d09302021,h3ty7,interference,1.0,2.0,19.0,11.0,25.0,Wdekb1.jpg,Clifa1.jpg,56.0,75.0,0.0,,1.0,0.0,25.0,11.0,1.039,-0.4616323476936326,-19.0,-0.6988821394028584,0.5010058710177121,-1.1998880104205705
454,Pilot,d09302021,h3ty7,interference,0.0,2.0,20.0,30.0,37.0,Lasse1.jpg,Mondb1.jpg,69.0,69.0,1.0,,,1.0,30.0,37.0,1.094,-0.4320347812007437,0.0,0.1220938677270056,0.1220938677270056,0.0
455,Pilot,d09302021,h3ty7,interference,0.0,2.0,21.0,23.0,35.0,Lewib1.jpg,Wdeka1.jpg,84.0,67.0,1.0,,,0.0,35.0,23.0,1.917,0.0108524410473924,17.0,1.069373875953772,-0.0042101333698964,1.0735840093236684
456,Pilot,d09302021,h3ty7,interference,0.0,2.0,22.0,53.0,52.0,Gorka1.jpg,Picaa1.jpg,66.0,84.0,1.0,,,0.0,52.0,53.0,0.637,-0.6779636518780199,-18.0,-0.0673621339183475,1.069373875953772,-1.1367360098721195
457,Pilot,d09302021,h3ty7,interference,1.0,2.0,23.0,47.0,26.0,Kupkd1.jpg,Clib1n.jpg,68.0,54.0,0.0,,0.0,1.0,47.0,26.0,1.136,-0.4094330031516287,14.0,0.0589418671785545,-0.8251861404997605,0.884128007678315
458,Pilot,d09302021,h3ty7,interference,0.0,2.0,24.0,29.0,10.0,Clifb1.jpg,Stera1.jpg,55.0,68.0,1.0,,,1.0,29.0,10.0,0.842,-0.5676454494954344,-13.0,-0.7620341399513094,0.0589418671785545,-0.820976007129864
459,Pilot,d09302021,h3ty7,interference,0.0,2.0,25.0,54.0,3.0,Kupka1.jpg,Fogeg1.jpg,69.0,60.0,1.0,,,1.0,54.0,3.0,1.273,-0.3357081557057056,9.0,0.1220938677270056,-0.446274137209054,0.5683680049360597
460,Pilot,d09302021,h3ty7,interference,1.0,2.0,26.0,33.0,44.0,Kupc1n.jpg,Lassf1.jpg,57.0,78.0,0.0,,1.0,0.0,44.0,33.0,7.128,2.815087331855458,-21.0,-0.6357301388544073,0.6904618726630654,-1.3261920115174726
461,Pilot,d09302021,h3ty7,interference,0.0,2.0,27.0,57.0,14.0,Lewc1n.jpg,Kupkb1.jpg,64.0,63.0,1.0,,,1.0,57.0,14.0,0.816,-0.5816370263829816,1.0,-0.1936661350152497,-0.2568181355637008,0.063152000548451
462,Pilot,d09302021,h3ty7,interference,1.0,2.0,28.0,12.0,51.0,Kupkc1.jpg,Gora1n.jpg,60.0,59.0,0.0,,0.0,1.0,12.0,51.0,1.281,-0.3314030551249218,1.0,-0.446274137209054,-0.5094261377575051,0.0631520005484511
463,Pilot,d09302021,h3ty7,interference,1.0,2.0,29.0,18.0,0.0,Krasb1.jpg,Gorkc1.jpg,55.0,70.0,0.0,,1.0,0.0,0.0,18.0,0.733,-0.626302444908614,-15.0,-0.7620341399513094,0.1852458682754567,-0.9472800082267662
464,Pilot,d09302021,h3ty7,interference,0.0,2.0,30.0,27.0,1.0,Vinb1n.jpg,Lewia1.jpg,79.0,83.0,1.0,,,0.0,1.0,27.0,0.781,-0.600471841423911,-4.0,0.7536138732115164,1.0062218754053207,-0.2526080021938043
465,Pilot,d09302021,h3ty7,interference,0.0,2.0,31.0,59.0,28.0,Kraa1n.jpg,Krasa1.jpg,63.0,74.0,1.0,,,0.0,28.0,59.0,4.181,1.2291959054092156,-11.0,-0.2568181355637008,0.437853870469261,-0.6946720060329619
466,Pilot,d09302021,h3ty7,interference,0.0,3.0,32.0,30.0,37.0,Lasse1.jpg,Mondb1.jpg,69.0,69.0,0.0,,,0.0,37.0,30.0,7.635,3.0879230811626326,0.0,0.1220938677270056,0.1220938677270056,0.0
467,Pilot,d09302021,h3ty7,interference,1.0,3.0,33.0,18.0,0.0,Krasb1.jpg,Gorkc1.jpg,55.0,70.0,0.0,,1.0,0.0,0.0,18.0,1.131,-0.4121236910146185,-15.0,-0.7620341399513094,0.1852458682754567,-0.9472800082267662
468,Pilot,d09302021,h3ty7,interference,1.0,3.0,34.0,33.0,44.0,Kupc1n.jpg,Lassf1.jpg,57.0,78.0,0.0,,1.0,0.0,44.0,33.0,1.029,-0.4670137234196124,-21.0,-0.6357301388544073,0.6904618726630654,-1.3261920115174726
469,Pilot,d09302021,h3ty7,interference,1.0,3.0,35.0,11.0,25.0,Wdekb1.jpg,Clifa1.jpg,56.0,75.0,0.0,,1.0,0.0,25.0,11.0,0.941,-0.5143698298082344,-19.0,-0.6988821394028584,0.5010058710177121,-1.1998880104205705
470,Pilot,d09302021,h3ty7,interference,0.0,3.0,36.0,59.0,28.0,Kraa1n.jpg,Krasa1.jpg,63.0,74.0,0.0,,,0.0,28.0,59.0,1.773,-0.0666393694067165,-11.0,-0.2568181355637008,0.437853870469261,-0.6946720060329619
471,Pilot,d09302021,h3ty7,interference,0.0,3.0,37.0,27.0,1.0,Vinb1n.jpg,Lewia1.jpg,79.0,83.0,0.0,,,0.0,1.0,27.0,0.915,-0.5283614066957819,-4.0,0.7536138732115164,1.0062218754053207,-0.2526080021938043
472,Pilot,d09302021,h3ty7,interference,0.0,3.0,38.0,29.0,10.0,Clifb1.jpg,Stera1.jpg,55.0,68.0,0.0,,,1.0,29.0,10.0,0.699,-0.6445991223769452,-13.0,-0.7620341399513094,0.0589418671785545,-0.820976007129864
473,Pilot,d09302021,h3ty7,interference,1.0,3.0,39.0,13.0,36.0,Picak1.jpg,Gorkf1.jpg,71.0,63.0,0.0,,1.0,0.0,36.0,13.0,1.056,-0.4524840089594669,8.0,0.2483978688239078,-0.2568181355637008,0.5052160043876086
474,Pilot,d09302021,h3ty7,interference,1.0,3.0,40.0,39.0,15.0,Dekb1n.jpg,Clia1n.jpg,79.0,58.0,0.0,,0.0,1.0,39.0,15.0,0.87,-0.552577597462691,21.0,0.7536138732115164,-0.5725781383059562,1.3261920115174726
475,Pilot,d09302021,h3ty7,interference,1.0,3.0,41.0,16.0,5.0,Lewa1n.jpg,Kupb1n.jpg,80.0,79.0,0.0,,0.0,1.0,16.0,5.0,0.922,-0.524594443687596,1.0,0.8167658737599675,0.7536138732115164,0.063152000548451
476,Pilot,d09302021,h3ty7,interference,1.0,3.0,42.0,12.0,51.0,Kupkc1.jpg,Gora1n.jpg,60.0,59.0,0.0,,0.0,1.0,12.0,51.0,0.789,-0.5961667408431272,1.0,-0.446274137209054,-0.5094261377575051,0.0631520005484511
477,Pilot,d09302021,h3ty7,interference,0.0,3.0,43.0,57.0,14.0,Lewc1n.jpg,Kupkb1.jpg,64.0,63.0,0.0,,,1.0,57.0,14.0,1.058,-0.4514077338142709,1.0,-0.1936661350152497,-0.2568181355637008,0.063152000548451
478,Pilot,d09302021,h3ty7,interference,0.0,3.0,44.0,23.0,35.0,Lewib1.jpg,Wdeka1.jpg,84.0,67.0,0.0,,,0.0,35.0,23.0,0.862,-0.5568826980434748,17.0,1.069373875953772,-0.0042101333698964,1.0735840093236684
479,Pilot,d09302021,h3ty7,interference,0.0,3.0,45.0,54.0,3.0,Kupka1.jpg,Fogeg1.jpg,69.0,60.0,0.0,,,1.0,54.0,3.0,0.767,-0.6080057674402826,9.0,0.1220938677270056,-0.446274137209054,0.5683680049360597
480,Pilot,d09302021,h3ty7,interference,0.0,3.0,46.0,53.0,52.0,Gorka1.jpg,Picaa1.jpg,66.0,84.0,0.0,,,0.0,52.0,53.0,1.068,-0.4460263580882911,-18.0,-0.0673621339183475,1.069373875953772,-1.1367360098721195
481,Pilot,d09302021,h3ty7,interference,1.0,3.0,47.0,47.0,26.0,Kupkd1.jpg,Clib1n.jpg,68.0,54.0,0.0,,0.0,1.0,47.0,26.0,0.872,-0.5515013223174949,14.0,0.0589418671785545,-0.8251861404997605,0.884128007678315
482,Pilot,d10012021,11A0U,interference,1.0,1.0,0.0,37.0,42.0,Mondb1.jpg,Picc1n.jpg,36.0,20.0,1.0,,1.0,0.0,42.0,37.0,1.821,0.2615900651055977,16.0,-0.0289828720386168,-0.8721209677074765,0.8431380956688596
483,Pilot,d10012021,11A0U,interference,0.0,1.0,1.0,43.0,23.0,Picac1.jpg,Lewib1.jpg,58.0,58.0,0.0,,,0.0,23.0,43.0,1.456,-0.1649392918650925,0.0,1.130332009506065,1.130332009506065,0.0
484,Pilot,d10012021,11A0U,interference,0.0,1.0,2.0,17.0,19.0,Picab1.jpg,Macc1n.jpg,38.0,55.0,0.0,,,1.0,17.0,19.0,1.451,-0.1707821597688005,-17.0,0.0764093899199905,0.9722436165681538,-0.8958342266481633
485,Pilot,d10012021,11A0U,interference,0.0,1.0,3.0,45.0,40.0,Klia1n.jpg,Krab1n.jpg,59.0,20.0,0.0,,,1.0,45.0,40.0,1.096,-0.5856257809320746,39.0,1.1830281404853686,-0.8721209677074765,2.055149108192845
486,Pilot,d10012021,11A0U,interference,0.0,1.0,4.0,44.0,48.0,Lassf1.jpg,Picb1n.jpg,30.0,36.0,0.0,,,1.0,44.0,48.0,1.066,-0.6206829883543232,-6.0,-0.3451596579144392,-0.0289828720386168,-0.3161767858758224
487,Pilot,d10012021,11A0U,interference,1.0,1.0,5.0,3.0,8.0,Fogeg1.jpg,Klina1.jpg,37.0,24.0,1.0,,0.0,0.0,8.0,3.0,3.327,2.0214618777024733,13.0,0.0237132589406868,-0.6613364437902616,0.6850497027309485
488,Pilot,d10012021,11A0U,interference,1.0,1.0,6.0,56.0,9.0,Luisc1.jpg,Lassc1.jpg,30.0,42.0,1.0,,0.0,1.0,56.0,9.0,3.409,2.117284911323286,-12.0,-0.3451596579144392,0.2871939138372054,-0.6323535717516446
489,Pilot,d10012021,11A0U,interference,1.0,1.0,7.0,31.0,18.0,Maca1n.jpg,Krasb1.jpg,30.0,60.0,1.0,,1.0,1.0,31.0,18.0,3.138,1.8006014709423075,-30.0,-0.3451596579144392,1.2357242714646726,-1.580883929379112
490,Pilot,d10012021,11A0U,interference,1.0,1.0,8.0,53.0,4.0,Gorka1.jpg,Mackb1.jpg,35.0,38.0,1.0,,1.0,0.0,4.0,53.0,3.509,2.234142269397448,-3.0,-0.0816790030179206,0.0764093899199905,-0.1580883929379111
491,Pilot,d10012021,11A0U,interference,1.0,1.0,9.0,29.0,54.0,Clifb1.jpg,Kupka1.jpg,39.0,20.0,1.0,,0.0,0.0,54.0,29.0,3.355,2.054181937963239,19.0,0.1291055208992942,-0.8721209677074765,1.0012264886067708
492,Pilot,d10012021,11A0U,interference,0.0,1.0,10.0,20.0,24.0,Gorc1n.jpg,Dekoa1.jpg,26.0,36.0,0.0,,,0.0,24.0,20.0,1.515,-0.0959934506013372,-10.0,-0.5559441818316542,-0.0289828720386168,-0.5269613097930372
493,Pilot,d10012021,11A0U,interference,0.0,1.0,11.0,16.0,55.0,Lewa1n.jpg,Lewic1.jpg,36.0,43.0,0.0,,,0.0,55.0,16.0,1.148,-0.5248599547335108,-7.0,-0.0289828720386168,0.3398900448165091,-0.368872916855126
494,Pilot,d10012021,11A0U,interference,0.0,1.0,12.0,1.0,7.0,Lewia1.jpg,Pica1n.jpg,58.0,34.0,0.0,,,1.0,1.0,7.0,1.61,0.0150210395691166,24.0,1.130332009506065,-0.1343751339972243,1.2647071435032893
495,Pilot,d10012021,11A0U,interference,1.0,1.0,13.0,10.0,15.0,Stera1.jpg,Clia1n.jpg,22.0,35.0,1.0,,1.0,0.0,15.0,10.0,3.051,1.6989355694177872,-13.0,-0.766728705748869,-0.0816790030179206,-0.6850497027309483
496,Pilot,d10012021,11A0U,interference,1.0,1.0,14.0,14.0,27.0,Kupkb1.jpg,Vinb1n.jpg,39.0,33.0,1.0,,0.0,1.0,14.0,27.0,2.278,0.7956281915045169,6.0,0.1291055208992942,-0.187071264976528,0.3161767858758223
497,Pilot,d10012021,11A0U,interference,0.0,1.0,15.0,57.0,39.0,Lewc1n.jpg,Dekb1n.jpg,31.0,29.0,0.0,,,0.0,39.0,57.0,1.592,-0.0060132848842324,2.0,-0.2924635269351355,-0.3978557888937429,0.1053922619586074
498,Pilot,d10012021,11A0U,interference,0.0,2.0,16.0,17.0,19.0,Picab1.jpg,Macc1n.jpg,38.0,55.0,1.0,,,1.0,17.0,19.0,0.929,-0.7807775689159248,-17.0,0.0764093899199905,0.9722436165681538,-0.8958342266481633
499,Pilot,d10012021,11A0U,interference,0.0,2.0,17.0,45.0,40.0,Klia1n.jpg,Krab1n.jpg,59.0,20.0,1.0,,,1.0,45.0,40.0,1.129,-0.5470628527676014,39.0,1.1830281404853686,-0.8721209677074765,2.055149108192845
500,Pilot,d10012021,11A0U,interference,0.0,2.0,18.0,43.0,23.0,Picac1.jpg,Lewib1.jpg,58.0,58.0,1.0,,,0.0,23.0,43.0,0.953,-0.7527318029781261,0.0,1.130332009506065,1.130332009506065,0.0
501,Pilot,d10012021,11A0U,interference,1.0,2.0,19.0,3.0,8.0,Fogeg1.jpg,Klina1.jpg,37.0,24.0,0.0,,0.0,0.0,8.0,3.0,1.527,-0.0819705676324377,13.0,0.0237132589406868,-0.6613364437902616,0.6850497027309485
502,Pilot,d10012021,11A0U,interference,0.0,2.0,20.0,1.0,7.0,Lewia1.jpg,Pica1n.jpg,58.0,34.0,1.0,,,1.0,1.0,7.0,0.962,-0.7422146407514515,24.0,1.130332009506065,-0.1343751339972243,1.2647071435032893
503,Pilot,d10012021,11A0U,interference,1.0,2.0,21.0,53.0,4.0,Gorka1.jpg,Mackb1.jpg,35.0,38.0,0.0,,1.0,0.0,4.0,53.0,1.43,-0.1953222049643746,-3.0,-0.0816790030179206,0.0764093899199905,-0.1580883929379111
504,Pilot,d10012021,11A0U,interference,1.0,2.0,22.0,31.0,18.0,Maca1n.jpg,Krasb1.jpg,30.0,60.0,0.0,,1.0,0.0,18.0,31.0,3.614,2.356842495375317,-30.0,-0.3451596579144392,1.2357242714646726,-1.580883929379112
505,Pilot,d10012021,11A0U,interference,0.0,2.0,23.0,57.0,39.0,Lewc1n.jpg,Dekb1n.jpg,31.0,29.0,1.0,,,0.0,39.0,57.0,1.047,-0.6428858863884142,2.0,-0.2924635269351355,-0.3978557888937429,0.1053922619586074
506,Pilot,d10012021,11A0U,interference,1.0,2.0,24.0,37.0,42.0,Mondb1.jpg,Picc1n.jpg,36.0,20.0,0.0,,1.0,0.0,42.0,37.0,1.488,-0.1275449372813608,16.0,-0.0289828720386168,-0.8721209677074765,0.8431380956688596
507,Pilot,d10012021,11A0U,interference,1.0,2.0,25.0,56.0,9.0,Luisc1.jpg,Lassc1.jpg,30.0,42.0,0.0,,0.0,1.0,56.0,9.0,0.876,-0.8427119686952306,-12.0,-0.3451596579144392,0.2871939138372054,-0.6323535717516446
508,Pilot,d10012021,11A0U,interference,0.0,2.0,26.0,16.0,55.0,Lewa1n.jpg,Lewic1.jpg,36.0,43.0,1.0,,,0.0,55.0,16.0,1.173,-0.4956456152149702,-7.0,-0.0289828720386168,0.3398900448165091,-0.368872916855126
509,Pilot,d10012021,11A0U,interference,1.0,2.0,27.0,14.0,27.0,Kupkb1.jpg,Vinb1n.jpg,39.0,33.0,0.0,,0.0,1.0,14.0,27.0,0.71,-1.036695183098339,6.0,0.1291055208992942,-0.187071264976528,0.3161767858758223
510,Pilot,d10012021,11A0U,interference,1.0,2.0,28.0,10.0,15.0,Stera1.jpg,Clia1n.jpg,22.0,35.0,0.0,,1.0,0.0,15.0,10.0,0.989,-0.7106631540714279,-13.0,-0.766728705748869,-0.0816790030179206,-0.6850497027309483
511,Pilot,d10012021,11A0U,interference,1.0,2.0,29.0,29.0,54.0,Clifb1.jpg,Kupka1.jpg,39.0,20.0,0.0,,0.0,0.0,54.0,29.0,0.937,-0.7714289802699918,19.0,0.1291055208992942,-0.8721209677074765,1.0012264886067708
512,Pilot,d10012021,11A0U,interference,0.0,2.0,30.0,20.0,24.0,Gorc1n.jpg,Dekoa1.jpg,26.0,36.0,1.0,,,0.0,24.0,20.0,0.775,-0.960737900350134,-10.0,-0.5559441818316542,-0.0289828720386168,-0.5269613097930372
513,Pilot,d10012021,11A0U,interference,0.0,2.0,31.0,44.0,48.0,Lassf1.jpg,Picb1n.jpg,30.0,36.0,1.0,,,1.0,44.0,48.0,1.632,0.040729658345432,-6.0,-0.3451596579144392,-0.0289828720386168,-0.3161767858758224
514,Pilot,d10012021,11A0U,interference,1.0,3.0,32.0,3.0,8.0,Fogeg1.jpg,Klina1.jpg,37.0,24.0,0.0,,0.0,0.0,8.0,3.0,2.39,0.9265084325475782,13.0,0.0237132589406868,-0.6613364437902616,0.6850497027309485
515,Pilot,d10012021,11A0U,interference,0.0,3.0,33.0,17.0,19.0,Picab1.jpg,Macc1n.jpg,38.0,55.0,0.0,,,1.0,17.0,19.0,0.943,-0.7644175387855423,-17.0,0.0764093899199905,0.9722436165681538,-0.8958342266481633
516,Pilot,d10012021,11A0U,interference,1.0,3.0,34.0,56.0,9.0,Luisc1.jpg,Lassc1.jpg,30.0,42.0,0.0,,0.0,1.0,56.0,9.0,1.204,-0.4594198342119801,-12.0,-0.3451596579144392,0.2871939138372054,-0.6323535717516446
517,Pilot,d10012021,11A0U,interference,1.0,3.0,35.0,53.0,4.0,Gorka1.jpg,Mackb1.jpg,35.0,38.0,0.0,,1.0,0.0,4.0,53.0,2.189,0.6916251428185131,-3.0,-0.0816790030179206,0.0764093899199905,-0.1580883929379111
518,Pilot,d10012021,11A0U,interference,1.0,3.0,36.0,31.0,18.0,Maca1n.jpg,Krasb1.jpg,30.0,60.0,0.0,,1.0,0.0,18.0,31.0,2.65,1.2303375635403986,-30.0,-0.3451596579144392,1.2357242714646726,-1.580883929379112
519,Pilot,d10012021,11A0U,interference,0.0,3.0,37.0,43.0,23.0,Picac1.jpg,Lewib1.jpg,58.0,58.0,0.0,,,0.0,23.0,43.0,0.949,-0.7574060973010925,0.0,1.130332009506065,1.130332009506065,0.0
520,Pilot,d10012021,11A0U,interference,0.0,3.0,38.0,57.0,39.0,Lewc1n.jpg,Dekb1n.jpg,31.0,29.0,0.0,,,0.0,39.0,57.0,1.085,-0.5984800903202326,2.0,-0.2924635269351355,-0.3978557888937429,0.1053922619586074
521,Pilot,d10012021,11A0U,interference,0.0,3.0,39.0,1.0,7.0,Lewia1.jpg,Pica1n.jpg,58.0,34.0,0.0,,,1.0,1.0,7.0,2.231,0.7407052332096608,24.0,1.130332009506065,-0.1343751339972243,1.2647071435032893
522,Pilot,d10012021,11A0U,interference,0.0,3.0,40.0,20.0,24.0,Gorc1n.jpg,Dekoa1.jpg,26.0,36.0,0.0,,,0.0,24.0,20.0,0.764,-0.9735922097382916,-10.0,-0.5559441818316542,-0.0289828720386168,-0.5269613097930372
523,Pilot,d10012021,11A0U,interference,0.0,3.0,41.0,16.0,55.0,Lewa1n.jpg,Lewic1.jpg,36.0,43.0,0.0,,,0.0,55.0,16.0,1.186,-0.4804541586653292,-7.0,-0.0289828720386168,0.3398900448165091,-0.368872916855126
524,Pilot,d10012021,11A0U,interference,1.0,3.0,42.0,37.0,42.0,Mondb1.jpg,Picc1n.jpg,36.0,20.0,0.0,,1.0,0.0,42.0,37.0,0.986,-0.7141688748136527,16.0,-0.0289828720386168,-0.8721209677074765,0.8431380956688596
525,Pilot,d10012021,11A0U,interference,1.0,3.0,43.0,14.0,27.0,Kupkb1.jpg,Vinb1n.jpg,39.0,33.0,0.0,,0.0,1.0,14.0,27.0,1.23,-0.4290369211126981,6.0,0.1291055208992942,-0.187071264976528,0.3161767858758223
526,Pilot,d10012021,11A0U,interference,1.0,3.0,44.0,29.0,54.0,Clifb1.jpg,Kupka1.jpg,39.0,20.0,0.0,,0.0,0.0,54.0,29.0,0.922,-0.7889575839811162,19.0,0.1291055208992942,-0.8721209677074765,1.0012264886067708
527,Pilot,d10012021,11A0U,interference,1.0,3.0,45.0,10.0,15.0,Stera1.jpg,Clia1n.jpg,22.0,35.0,0.0,,1.0,0.0,15.0,10.0,0.937,-0.7714289802699918,-13.0,-0.766728705748869,-0.0816790030179206,-0.6850497027309483
528,Pilot,d10012021,11A0U,interference,0.0,3.0,46.0,44.0,48.0,Lassf1.jpg,Picb1n.jpg,30.0,36.0,0.0,,,1.0,44.0,48.0,0.906,-0.8076547612729821,-6.0,-0.3451596579144392,-0.0289828720386168,-0.3161767858758224
529,Pilot,d10012021,11A0U,interference,0.0,3.0,47.0,45.0,40.0,Klia1n.jpg,Krab1n.jpg,59.0,20.0,0.0,,,1.0,45.0,40.0,1.098,-0.5832886337705915,39.0,1.1830281404853686,-0.8721209677074765,2.055149108192845
530,Pilot,d10012021,5Mz5m,interference,1.0,1.0,0.0,30.0,57.0,Lasse1.jpg,Lewc1n.jpg,55.0,37.0,1.0,,0.0,1.0,30.0,57.0,1.39,0.1546549253818033,18.0,0.22972172885626,-0.7208509422730915,0.9505726711293516
531,Pilot,d10012021,5Mz5m,interference,1.0,1.0,1.0,44.0,37.0,Lassf1.jpg,Mondb1.jpg,35.0,67.0,1.0,,0.0,0.0,37.0,44.0,1.558,0.4349105025231213,-32.0,-0.8264701279541307,0.8634368429424945,-1.689906970896625
532,Pilot,d10012021,5Mz5m,interference,0.0,1.0,2.0,3.0,13.0,Fogeg1.jpg,Picak1.jpg,36.0,63.0,0.0,,,0.0,13.0,3.0,1.83,0.8886576274185882,-27.0,-0.7736605351136111,0.6521984715804163,-1.4258590066940275
533,Pilot,d10012021,5Mz5m,interference,1.0,1.0,3.0,16.0,33.0,Lewa1n.jpg,Kupc1n.jpg,60.0,58.0,1.0,,1.0,0.0,33.0,16.0,1.666,0.6150748021139683,2.0,0.4937696930588577,0.3881505073778186,0.105619185681039
534,Pilot,d10012021,5Mz5m,interference,0.0,1.0,4.0,54.0,26.0,Kupka1.jpg,Clib1n.jpg,58.0,59.0,0.0,,,1.0,54.0,26.0,1.434,0.2280551955854818,-1.0,0.3881505073778186,0.4409601002183382,-0.0528095928405195
535,Pilot,d10012021,5Mz5m,interference,0.0,1.0,5.0,39.0,22.0,Dekb1n.jpg,Macb1n.jpg,36.0,61.0,0.0,,,0.0,22.0,39.0,1.264,-0.0555367574741848,-25.0,-0.7736605351136111,0.5465792858993772,-1.3202398210129882
536,Pilot,d10012021,5Mz5m,interference,1.0,1.0,6.0,8.0,48.0,Klina1.jpg,Picb1n.jpg,61.0,63.0,1.0,,0.0,1.0,8.0,48.0,2.274,1.6293330812920708,-2.0,0.5465792858993772,0.6521984715804163,-0.1056191856810391
537,Pilot,d10012021,5Mz5m,interference,0.0,1.0,7.0,50.0,19.0,Gorke1.jpg,Macc1n.jpg,41.0,62.0,0.0,,,0.0,19.0,50.0,2.144,1.4124686465993843,-21.0,-0.5096125709110134,0.5993888787398968,-1.1090014496509102
538,Pilot,d10012021,5Mz5m,interference,1.0,1.0,8.0,4.0,12.0,Mackb1.jpg,Kupkc1.jpg,59.0,66.0,1.0,,0.0,0.0,12.0,4.0,2.561,2.108103025575155,-7.0,0.4409601002183382,0.8106272501019749,-0.3696671498836367
539,Pilot,d10012021,5Mz5m,interference,0.0,1.0,9.0,9.0,58.0,Lassc1.jpg,Mackc1.jpg,37.0,63.0,0.0,,,0.0,58.0,9.0,1.426,0.2147096919120857,-26.0,-0.7208509422730915,0.6521984715804163,-1.373049413853508
540,Pilot,d10012021,5Mz5m,interference,0.0,1.0,10.0,43.0,2.0,Picac1.jpg,Dekob1.jpg,35.0,37.0,0.0,,,1.0,43.0,2.0,1.584,0.4782833894616586,-2.0,-0.8264701279541307,-0.7208509422730915,-0.1056191856810391
