,Exp,group,PID,phase,condition,block,trial,stimulus_left,stimulus_right,painting_left,painting_right,rating_left,rating_right,explain_trial,reward_type,left_chosen,chosen_obj,unchosen_obj,rt,zscored_rt,delta_ratings,zcored_rating_left,zcored_rating_right,zscored_delta_ratings
0,Exp1,d11032021,ZGrrY,deliberation,1.0,1.0,0.0,16.0,1.0,Lewa1n.jpg,Lewia1.jpg,32.0,65.0,1.0,1.0,0.0,1.0,16.0,1.456,-0.040879348534580494,-33.0,-0.5180033998440435,1.038364933526527,-1.5563683333705707
1,Exp1,d11032021,ZGrrY,deliberation,1.0,1.0,1.0,50.0,18.0,Gorke1.jpg,Krasb1.jpg,37.0,64.0,1.0,-1.0,0.0,18.0,50.0,2.317,1.0533316075775434,-27.0,-0.28219001600001764,0.9912022567577219,-1.2733922727577396
2,Exp1,d11032021,ZGrrY,deliberation,1.0,1.0,2.0,31.0,0.0,Maca1n.jpg,Gorkc1.jpg,39.0,19.0,1.0,-1.0,1.0,31.0,0.0,2.384,1.1384792661832484,20.0,-0.1878646624624073,-1.1311181978385108,0.9432535353761035
3,Exp1,d11032021,ZGrrY,deliberation,1.0,1.0,3.0,27.0,22.0,Vinb1n.jpg,Macb1n.jpg,58.0,59.0,1.0,1.0,1.0,27.0,22.0,1.547,0.07476896390003417,-1.0,0.7082261961448909,0.755388872913696,-0.047162676768805145
4,Exp1,d11032021,ZGrrY,deliberation,1.0,1.0,4.0,58.0,10.0,Mackc1.jpg,Stera1.jpg,28.0,62.0,1.0,1.0,1.0,58.0,10.0,2.219,0.9287872711094964,-34.0,-0.7066541069192641,0.8968769032201116,-1.6035310101393758
5,Exp1,d11032021,ZGrrY,deliberation,0.0,1.0,5.0,15.0,3.0,Clia1n.jpg,Fogeg1.jpg,34.0,65.0,0.0,1.0,0.0,3.0,15.0,1.886,0.505590699233379,-31.0,-0.42367804630643313,1.038364933526527,-1.4620429798329602
6,Exp1,d11032021,ZGrrY,deliberation,1.0,1.0,6.0,32.0,53.0,Macka1.jpg,Gorka1.jpg,40.0,54.0,1.0,-1.0,1.0,32.0,53.0,3.605,2.690200029729013,-14.0,-0.14070198569360212,0.5195754890696702,-0.6602774747632724
7,Exp1,d11032021,ZGrrY,deliberation,0.0,1.0,7.0,39.0,45.0,Dekb1n.jpg,Klia1n.jpg,36.0,42.0,0.0,-1.0,1.0,39.0,45.0,2.809,1.6785950110701855,-6.0,-0.3293526927688228,-0.0463766321559918,-0.282976060612831
8,Exp1,d11032021,ZGrrY,deliberation,0.0,1.0,8.0,57.0,33.0,Lewc1n.jpg,Kupc1n.jpg,59.0,57.0,0.0,-1.0,1.0,57.0,33.0,3.757,2.8833708373121056,2.0,0.755388872913696,0.6610635193760858,0.09432535353761029
9,Exp1,d11032021,ZGrrY,deliberation,0.0,1.0,9.0,35.0,21.0,Wdeka1.jpg,Lewb1n.jpg,65.0,38.0,0.0,1.0,1.0,35.0,21.0,2.903,1.7980559052334137,27.0,1.038364933526527,-0.23502733923121247,1.2733922727577396
10,Exp1,d11032021,ZGrrY,deliberation,1.0,1.0,10.0,48.0,36.0,Picb1n.jpg,Gorkf1.jpg,66.0,35.0,1.0,1.0,1.0,48.0,36.0,1.67,0.23108481477319467,31.0,1.0855276102953322,-0.376515369537628,1.4620429798329602
11,Exp1,d11032021,ZGrrY,deliberation,0.0,1.0,11.0,23.0,47.0,Lewib1.jpg,Kupkd1.jpg,35.0,31.0,0.0,1.0,1.0,23.0,47.0,2.789,1.6531777995460943,4.0,-0.376515369537628,-0.5651660766128487,0.1886507070752207
12,Exp1,d11032021,ZGrrY,deliberation,0.0,1.0,12.0,11.0,12.0,Wdekb1.jpg,Kupkc1.jpg,22.0,17.0,0.0,-1.0,0.0,12.0,11.0,1.494,0.007413353361192716,5.0,-0.9896301675320952,-1.225443551376121,0.23581338384402584
13,Exp1,d11032021,ZGrrY,deliberation,1.0,1.0,13.0,17.0,14.0,Picab1.jpg,Kupkb1.jpg,65.0,29.0,1.0,-1.0,1.0,17.0,14.0,1.204,-0.3611362137381289,36.0,1.038364933526527,-0.659491430150459,1.6978563636769861
14,Exp1,d11032021,ZGrrY,deliberation,0.0,1.0,14.0,56.0,2.0,Luisc1.jpg,Dekob1.jpg,36.0,36.0,0.0,1.0,1.0,56.0,2.0,2.508,1.2960659776326136,0.0,-0.3293526927688228,-0.3293526927688228,0.0
15,Exp1,d11032021,ZGrrY,deliberation,0.0,1.0,15.0,51.0,5.0,Gora1n.jpg,Kupb1n.jpg,25.0,62.0,0.0,-1.0,0.0,5.0,51.0,1.386,-0.12983958886889957,-37.0,-0.8481421372256797,0.8968769032201116,-1.7450190404457913
16,Exp1,d11032021,ZGrrY,deliberation,1.0,2.0,16.0,31.0,0.0,Maca1n.jpg,Gorkc1.jpg,39.0,19.0,0.0,-1.0,1.0,31.0,0.0,1.181,-0.39036600699083357,20.0,-0.1878646624624073,-1.1311181978385108,0.9432535353761035
17,Exp1,d11032021,ZGrrY,deliberation,1.0,2.0,17.0,32.0,53.0,Macka1.jpg,Gorka1.jpg,40.0,54.0,0.0,-1.0,1.0,32.0,53.0,0.841,-0.8224586029003831,-14.0,-0.14070198569360212,0.5195754890696702,-0.6602774747632724
18,Exp1,d11032021,ZGrrY,deliberation,1.0,2.0,18.0,17.0,14.0,Picab1.jpg,Kupkb1.jpg,65.0,29.0,0.0,-1.0,1.0,17.0,14.0,0.757,-0.9292108913015659,36.0,1.038364933526527,-0.659491430150459,1.6978563636769861
19,Exp1,d11032021,ZGrrY,deliberation,0.0,2.0,19.0,57.0,33.0,Lewc1n.jpg,Kupc1n.jpg,59.0,57.0,1.0,-1.0,1.0,57.0,33.0,0.95,-0.6839348000940864,2.0,0.755388872913696,0.6610635193760858,0.09432535353761029
20,Exp1,d11032021,ZGrrY,deliberation,1.0,2.0,20.0,58.0,10.0,Mackc1.jpg,Stera1.jpg,28.0,62.0,0.0,1.0,1.0,58.0,10.0,1.609,0.15356231962471678,-34.0,-0.7066541069192641,0.8968769032201116,-1.6035310101393758
21,Exp1,d11032021,ZGrrY,deliberation,1.0,2.0,21.0,48.0,36.0,Picb1n.jpg,Gorkf1.jpg,66.0,35.0,0.0,1.0,1.0,48.0,36.0,0.911,-0.733498362566064,31.0,1.0855276102953322,-0.376515369537628,1.4620429798329602
22,Exp1,d11032021,ZGrrY,deliberation,0.0,2.0,22.0,35.0,21.0,Wdeka1.jpg,Lewb1n.jpg,65.0,38.0,1.0,1.0,1.0,35.0,21.0,1.39,-0.12475614656408134,27.0,1.038364933526527,-0.23502733923121247,1.2733922727577396
23,Exp1,d11032021,ZGrrY,deliberation,0.0,2.0,23.0,51.0,5.0,Gora1n.jpg,Kupb1n.jpg,25.0,62.0,1.0,-1.0,0.0,5.0,51.0,1.186,-0.38401170410981095,-37.0,-0.8481421372256797,0.8968769032201116,-1.7450190404457913
24,Exp1,d11032021,ZGrrY,deliberation,0.0,2.0,24.0,11.0,12.0,Wdekb1.jpg,Kupkc1.jpg,22.0,17.0,1.0,-1.0,0.0,12.0,11.0,1.009,-0.6089540260980176,5.0,-0.9896301675320952,-1.225443551376121,0.23581338384402584
25,Exp1,d11032021,ZGrrY,deliberation,0.0,2.0,25.0,39.0,45.0,Dekb1n.jpg,Klia1n.jpg,36.0,42.0,1.0,-1.0,1.0,39.0,45.0,2.534,1.3291083526139318,-6.0,-0.3293526927688228,-0.0463766321559918,-0.282976060612831
26,Exp1,d11032021,ZGrrY,deliberation,0.0,2.0,26.0,23.0,47.0,Lewib1.jpg,Kupkd1.jpg,35.0,31.0,1.0,1.0,1.0,23.0,47.0,1.213,-0.3496984685522877,4.0,-0.376515369537628,-0.5651660766128487,0.1886507070752207
27,Exp1,d11032021,ZGrrY,deliberation,1.0,2.0,27.0,50.0,18.0,Gorke1.jpg,Krasb1.jpg,37.0,64.0,0.0,-1.0,0.0,18.0,50.0,1.96,0.5996343818725163,-27.0,-0.28219001600001764,0.9912022567577219,-1.2733922727577396
28,Exp1,d11032021,ZGrrY,deliberation,1.0,2.0,28.0,16.0,1.0,Lewa1n.jpg,Lewia1.jpg,32.0,65.0,0.0,1.0,0.0,1.0,16.0,2.262,0.9834342758862926,-33.0,-0.5180033998440435,1.038364933526527,-1.5563683333705707
29,Exp1,d11032021,ZGrrY,deliberation,1.0,2.0,29.0,27.0,22.0,Vinb1n.jpg,Macb1n.jpg,58.0,59.0,0.0,1.0,1.0,27.0,22.0,1.113,-0.47678452617274353,-1.0,0.7082261961448909,0.755388872913696,-0.047162676768805145
30,Exp1,d11032021,ZGrrY,deliberation,0.0,2.0,30.0,15.0,3.0,Clia1n.jpg,Fogeg1.jpg,34.0,65.0,1.0,1.0,0.0,3.0,15.0,1.276,-0.2696342522514007,-31.0,-0.42367804630643313,1.038364933526527,-1.4620429798329602
31,Exp1,d11032021,ZGrrY,deliberation,0.0,2.0,31.0,56.0,2.0,Luisc1.jpg,Dekob1.jpg,36.0,36.0,1.0,1.0,1.0,56.0,2.0,1.35,-0.17559056961226338,0.0,-0.3293526927688228,-0.3293526927688228,0.0
32,Exp1,d11032021,ZGrrY,deliberation,1.0,3.0,32.0,27.0,22.0,Vinb1n.jpg,Macb1n.jpg,58.0,59.0,0.0,1.0,1.0,27.0,22.0,1.219,-0.3420733050950604,-1.0,0.7082261961448909,0.755388872913696,-0.047162676768805145
33,Exp1,d11032021,ZGrrY,deliberation,0.0,3.0,33.0,23.0,47.0,Lewib1.jpg,Kupkd1.jpg,35.0,31.0,0.0,1.0,1.0,23.0,47.0,0.8,-0.8745638865247698,4.0,-0.376515369537628,-0.5651660766128487,0.1886507070752207
34,Exp1,d11032021,ZGrrY,deliberation,0.0,3.0,34.0,35.0,21.0,Wdeka1.jpg,Lewb1n.jpg,65.0,38.0,0.0,1.0,1.0,35.0,21.0,1.114,-0.47551366559653885,27.0,1.038364933526527,-0.23502733923121247,1.2733922727577396
35,Exp1,d11032021,ZGrrY,deliberation,0.0,3.0,35.0,15.0,3.0,Clia1n.jpg,Fogeg1.jpg,34.0,65.0,0.0,1.0,0.0,3.0,15.0,1.149,-0.43103354542937944,-31.0,-0.42367804630643313,1.038364933526527,-1.4620429798329602
36,Exp1,d11032021,ZGrrY,deliberation,1.0,3.0,36.0,58.0,10.0,Mackc1.jpg,Stera1.jpg,28.0,62.0,0.0,1.0,1.0,58.0,10.0,0.869,-0.7868745067666555,-34.0,-0.7066541069192641,0.8968769032201116,-1.6035310101393758
37,Exp1,d11032021,ZGrrY,deliberation,1.0,3.0,37.0,16.0,1.0,Lewa1n.jpg,Lewia1.jpg,32.0,65.0,0.0,1.0,0.0,1.0,16.0,0.675,-1.0334214585503394,-33.0,-0.5180033998440435,1.038364933526527,-1.5563683333705707
38,Exp1,d11032021,ZGrrY,deliberation,1.0,3.0,38.0,50.0,18.0,Gorke1.jpg,Krasb1.jpg,37.0,64.0,0.0,-1.0,0.0,18.0,50.0,0.809,-0.8631261413389288,-27.0,-0.28219001600001764,0.9912022567577219,-1.2733922727577396
39,Exp1,d11032021,ZGrrY,deliberation,1.0,3.0,39.0,17.0,14.0,Picab1.jpg,Kupkb1.jpg,65.0,29.0,0.0,-1.0,1.0,17.0,14.0,0.706,-0.9940247806879983,36.0,1.038364933526527,-0.659491430150459,1.6978563636769861
40,Exp1,d11032021,ZGrrY,deliberation,0.0,3.0,40.0,57.0,33.0,Lewc1n.jpg,Kupc1n.jpg,59.0,57.0,0.0,-1.0,1.0,57.0,33.0,0.702,-0.9991082229928165,2.0,0.755388872913696,0.6610635193760858,0.09432535353761029
41,Exp1,d11032021,ZGrrY,deliberation,0.0,3.0,41.0,39.0,45.0,Dekb1n.jpg,Klia1n.jpg,36.0,42.0,0.0,-1.0,1.0,39.0,45.0,0.773,-0.9088771220822929,-6.0,-0.3293526927688228,-0.0463766321559918,-0.282976060612831
42,Exp1,d11032021,ZGrrY,deliberation,0.0,3.0,42.0,51.0,5.0,Gora1n.jpg,Kupb1n.jpg,25.0,62.0,0.0,-1.0,0.0,5.0,51.0,0.801,-0.8732930259485653,-37.0,-0.8481421372256797,0.8968769032201116,-1.7450190404457913
43,Exp1,d11032021,ZGrrY,deliberation,0.0,3.0,43.0,11.0,12.0,Wdekb1.jpg,Kupkc1.jpg,22.0,17.0,0.0,-1.0,0.0,12.0,11.0,0.861,-0.7970413913762919,5.0,-0.9896301675320952,-1.225443551376121,0.23581338384402584
44,Exp1,d11032021,ZGrrY,deliberation,1.0,3.0,44.0,48.0,36.0,Picb1n.jpg,Gorkf1.jpg,66.0,35.0,0.0,1.0,1.0,48.0,36.0,0.897,-0.7512904106329278,31.0,1.0855276102953322,-0.376515369537628,1.4620429798329602
45,Exp1,d11032021,ZGrrY,deliberation,1.0,3.0,45.0,32.0,53.0,Macka1.jpg,Gorka1.jpg,40.0,54.0,0.0,-1.0,1.0,32.0,53.0,0.885,-0.7665407375473825,-14.0,-0.14070198569360212,0.5195754890696702,-0.6602774747632724
46,Exp1,d11032021,ZGrrY,deliberation,1.0,3.0,46.0,31.0,0.0,Maca1n.jpg,Gorkc1.jpg,39.0,19.0,0.0,-1.0,1.0,31.0,0.0,0.737,-0.954628102825657,20.0,-0.1878646624624073,-1.1311181978385108,0.9432535353761035
47,Exp1,d11032021,ZGrrY,deliberation,0.0,3.0,47.0,56.0,2.0,Luisc1.jpg,Dekob1.jpg,36.0,36.0,0.0,1.0,1.0,56.0,2.0,0.959,-0.6724970549082454,0.0,-0.3293526927688228,-0.3293526927688228,0.0
48,Exp1,d11042021,l6WpQ,deliberation,1.0,1.0,0.0,10.0,46.0,Stera1.jpg,Deka1n.jpg,95.0,85.0,1.0,1.0,1.0,10.0,46.0,3.445,0.4762228229972439,10.0,0.734445595467895,0.38134675149294545,0.35309884397494956
49,Exp1,d11042021,l6WpQ,deliberation,0.0,1.0,1.0,42.0,55.0,Picc1n.jpg,Lewic1.jpg,78.0,85.0,0.0,-1.0,0.0,55.0,42.0,5.139,1.5197907145390934,-7.0,0.13417756071048076,0.38134675149294545,-0.2471691907824647
50,Exp1,d11042021,l6WpQ,deliberation,1.0,1.0,2.0,36.0,12.0,Gorkf1.jpg,Kupkc1.jpg,80.0,31.0,1.0,-1.0,1.0,36.0,12.0,3.738,0.6567218738955686,49.0,0.20479732950547067,-1.5253870059717825,1.730184335477253
51,Exp1,d11042021,l6WpQ,deliberation,1.0,1.0,3.0,14.0,56.0,Kupkb1.jpg,Luisc1.jpg,76.0,83.0,1.0,1.0,0.0,56.0,14.0,2.332,-0.20942715532983897,-7.0,0.06355779191549082,0.31072698269795557,-0.24716919078246474
52,Exp1,d11042021,l6WpQ,deliberation,0.0,1.0,4.0,25.0,32.0,Clifa1.jpg,Macka1.jpg,33.0,89.0,0.0,1.0,0.0,32.0,25.0,4.188,0.9339388462650089,-56.0,-1.4547672371767923,0.5225862890829253,-1.9773535262597175
53,Exp1,d11042021,l6WpQ,deliberation,0.0,1.0,5.0,40.0,6.0,Krab1n.jpg,Wdekc1.jpg,95.0,84.0,0.0,-1.0,1.0,40.0,6.0,5.673,1.8487548550841628,11.0,0.734445595467895,0.3460368670954505,0.3884087283724445
54,Exp1,d11042021,l6WpQ,deliberation,1.0,1.0,6.0,23.0,24.0,Lewib1.jpg,Dekoa1.jpg,88.0,74.0,1.0,-1.0,1.0,23.0,24.0,5.817,1.9374642862423839,14.0,0.4872764046854303,-0.007061976879499093,0.49433838156492943
55,Exp1,d11042021,l6WpQ,deliberation,0.0,1.0,7.0,45.0,47.0,Klia1n.jpg,Kupkd1.jpg,70.0,86.0,0.0,-1.0,0.0,47.0,45.0,9.97,4.4958689223541315,-16.0,-0.14830151446947892,0.41665663589044044,-0.5649581503599194
56,Exp1,d11042021,l6WpQ,deliberation,0.0,1.0,8.0,38.0,50.0,Lasc1n.jpg,Gorke1.jpg,94.0,79.0,0.0,-1.0,1.0,38.0,50.0,3.152,0.2957237720989195,15.0,0.6991357110704001,0.1694874451079757,0.5296482659624244
57,Exp1,d11042021,l6WpQ,deliberation,1.0,1.0,9.0,34.0,57.0,Monb1n.jpg,Lewc1n.jpg,74.0,83.0,1.0,1.0,0.0,57.0,34.0,5.04,1.4588029806178164,-9.0,-0.007061976879499093,0.31072698269795557,-0.3177889595774547
58,Exp1,d11042021,l6WpQ,deliberation,0.0,1.0,10.0,0.0,51.0,Gorkc1.jpg,Gora1n.jpg,95.0,91.0,0.0,1.0,1.0,0.0,51.0,4.262,0.9795256372768724,4.0,0.734445595467895,0.5932060578779152,0.14123953758997976
59,Exp1,d11042021,l6WpQ,deliberation,0.0,1.0,11.0,7.0,43.0,Pica1n.jpg,Picac1.jpg,82.0,94.0,0.0,1.0,0.0,43.0,7.0,4.289,0.9961586556190388,-12.0,0.27541709830046057,0.6991357110704001,-0.4237186127699395
60,Exp1,d11042021,l6WpQ,deliberation,1.0,1.0,12.0,9.0,20.0,Lassc1.jpg,Gorc1n.jpg,80.0,87.0,1.0,1.0,0.0,20.0,9.0,2.674,0.0012577436709358674,-7.0,0.20479732950547067,0.4519665202879354,-0.24716919078246471
61,Exp1,d11042021,l6WpQ,deliberation,1.0,1.0,13.0,1.0,29.0,Lewia1.jpg,Clifb1.jpg,94.0,38.0,1.0,-1.0,1.0,1.0,29.0,3.39,0.44234074859653466,56.0,0.6991357110704001,-1.2782178151893175,1.9773535262597175
62,Exp1,d11042021,l6WpQ,deliberation,0.0,1.0,14.0,30.0,39.0,Lasse1.jpg,Dekb1n.jpg,92.0,84.0,0.0,1.0,1.0,30.0,39.0,2.836,0.1010558537239344,8.0,0.6285159422754102,0.3460368670954505,0.2824790751799597
63,Exp1,d11042021,l6WpQ,deliberation,1.0,1.0,15.0,26.0,19.0,Clib1n.jpg,Macc1n.jpg,73.0,94.0,1.0,-1.0,0.0,19.0,26.0,2.262,-0.25254979547619627,-21.0,-0.04237186127699405,0.6991357110704001,-0.7415075723473941
64,Exp1,d11042021,l6WpQ,deliberation,0.0,2.0,16.0,40.0,6.0,Krab1n.jpg,Wdekc1.jpg,95.0,84.0,1.0,-1.0,1.0,40.0,6.0,3.294,0.3832011278243873,11.0,0.734445595467895,0.3460368670954505,0.3884087283724445
65,Exp1,d11042021,l6WpQ,deliberation,1.0,2.0,17.0,36.0,12.0,Gorkf1.jpg,Kupkc1.jpg,80.0,31.0,0.0,-1.0,1.0,36.0,12.0,2.609,-0.03878470789353884,49.0,0.20479732950547067,-1.5253870059717825,1.730184335477253
66,Exp1,d11042021,l6WpQ,deliberation,0.0,2.0,18.0,7.0,43.0,Pica1n.jpg,Picac1.jpg,82.0,94.0,1.0,1.0,0.0,43.0,7.0,1.594,-0.6640629900157212,-12.0,0.27541709830046057,0.6991357110704001,-0.4237186127699395
67,Exp1,d11042021,l6WpQ,deliberation,0.0,2.0,19.0,38.0,50.0,Lasc1n.jpg,Gorke1.jpg,94.0,79.0,1.0,-1.0,1.0,38.0,50.0,1.642,-0.6344931796296477,15.0,0.6991357110704001,0.1694874451079757,0.5296482659624244
68,Exp1,d11042021,l6WpQ,deliberation,0.0,2.0,20.0,25.0,32.0,Clifa1.jpg,Macka1.jpg,33.0,89.0,1.0,1.0,0.0,32.0,25.0,2.469,-0.12502998818625374,-56.0,-1.4547672371767923,0.5225862890829253,-1.9773535262597175
69,Exp1,d11042021,l6WpQ,deliberation,1.0,2.0,21.0,34.0,57.0,Monb1n.jpg,Lewc1n.jpg,74.0,83.0,0.0,1.0,0.0,57.0,34.0,2.481,-0.11763753558973532,-9.0,-0.007061976879499093,0.31072698269795557,-0.3177889595774547
70,Exp1,d11042021,l6WpQ,deliberation,1.0,2.0,22.0,14.0,56.0,Kupkb1.jpg,Luisc1.jpg,76.0,83.0,0.0,1.0,0.0,56.0,14.0,1.728,-0.5815139360212657,-7.0,0.06355779191549082,0.31072698269795557,-0.24716919078246474
71,Exp1,d11042021,l6WpQ,deliberation,1.0,2.0,23.0,26.0,19.0,Clib1n.jpg,Macc1n.jpg,73.0,94.0,0.0,-1.0,0.0,19.0,26.0,1.755,-0.5648809176790993,-21.0,-0.04237186127699405,0.6991357110704001,-0.7415075723473941
72,Exp1,d11042021,l6WpQ,deliberation,0.0,2.0,24.0,0.0,51.0,Gorkc1.jpg,Gora1n.jpg,95.0,91.0,1.0,1.0,1.0,0.0,51.0,1.902,-0.47432337337174874,4.0,0.734445595467895,0.5932060578779152,0.14123953758997976
73,Exp1,d11042021,l6WpQ,deliberation,0.0,2.0,25.0,42.0,55.0,Picc1n.jpg,Lewic1.jpg,78.0,85.0,1.0,-1.0,0.0,55.0,42.0,1.974,-0.4299686577926382,-7.0,0.13417756071048076,0.38134675149294545,-0.2471691907824647
74,Exp1,d11042021,l6WpQ,deliberation,0.0,2.0,26.0,45.0,47.0,Klia1n.jpg,Kupkd1.jpg,70.0,86.0,1.0,-1.0,0.0,47.0,45.0,3.097,0.26184169769821,-16.0,-0.14830151446947892,0.41665663589044044,-0.5649581503599194
75,Exp1,d11042021,l6WpQ,deliberation,1.0,2.0,27.0,1.0,29.0,Lewia1.jpg,Clifb1.jpg,94.0,38.0,0.0,-1.0,1.0,1.0,29.0,2.084,-0.36220450899121936,56.0,0.6991357110704001,-1.2782178151893175,1.9773535262597175
76,Exp1,d11042021,l6WpQ,deliberation,1.0,2.0,28.0,9.0,20.0,Lassc1.jpg,Gorc1n.jpg,80.0,87.0,0.0,1.0,1.0,9.0,20.0,1.82,-0.5248384661146245,-7.0,0.20479732950547067,0.4519665202879354,-0.24716919078246471
77,Exp1,d11042021,l6WpQ,deliberation,1.0,2.0,29.0,10.0,46.0,Stera1.jpg,Deka1n.jpg,95.0,85.0,0.0,1.0,1.0,10.0,46.0,1.64,-0.6357252550624007,10.0,0.734445595467895,0.38134675149294545,0.35309884397494956
78,Exp1,d11042021,l6WpQ,deliberation,0.0,2.0,30.0,30.0,39.0,Lasse1.jpg,Dekb1n.jpg,92.0,84.0,1.0,1.0,1.0,30.0,39.0,1.241,-0.8815243038966379,8.0,0.6285159422754102,0.3460368670954505,0.2824790751799597
79,Exp1,d11042021,l6WpQ,deliberation,1.0,2.0,31.0,23.0,24.0,Lewib1.jpg,Dekoa1.jpg,88.0,74.0,0.0,-1.0,1.0,23.0,24.0,1.529,-0.7041054415801961,14.0,0.4872764046854303,-0.007061976879499093,0.49433838156492943
80,Exp1,d11042021,l6WpQ,deliberation,1.0,3.0,32.0,9.0,20.0,Lassc1.jpg,Gorc1n.jpg,80.0,87.0,0.0,1.0,0.0,20.0,9.0,2.355,-0.19525828785317859,-7.0,0.20479732950547067,0.4519665202879354,-0.24716919078246471
81,Exp1,d11042021,l6WpQ,deliberation,1.0,3.0,33.0,14.0,56.0,Kupkb1.jpg,Luisc1.jpg,76.0,83.0,0.0,1.0,0.0,56.0,14.0,1.15,-0.9375837360869026,-7.0,0.06355779191549082,0.31072698269795557,-0.24716919078246474
82,Exp1,d11042021,l6WpQ,deliberation,0.0,3.0,34.0,40.0,6.0,Krab1n.jpg,Wdekc1.jpg,95.0,84.0,0.0,-1.0,1.0,40.0,6.0,2.241,-0.26548658752010346,11.0,0.734445595467895,0.3460368670954505,0.3884087283724445
83,Exp1,d11042021,l6WpQ,deliberation,0.0,3.0,35.0,38.0,50.0,Lasc1n.jpg,Gorke1.jpg,94.0,79.0,0.0,-1.0,1.0,38.0,50.0,1.597,-0.6622148768665918,15.0,0.6991357110704001,0.1694874451079757,0.5296482659624244
84,Exp1,d11042021,l6WpQ,deliberation,1.0,3.0,36.0,26.0,19.0,Clib1n.jpg,Macc1n.jpg,73.0,94.0,0.0,-1.0,0.0,19.0,26.0,1.516,-0.712113931893091,-21.0,-0.04237186127699405,0.6991357110704001,-0.7415075723473941
85,Exp1,d11042021,l6WpQ,deliberation,1.0,3.0,37.0,34.0,57.0,Monb1n.jpg,Lewc1n.jpg,74.0,83.0,0.0,1.0,0.0,57.0,34.0,1.398,-0.7848063824255221,-9.0,-0.007061976879499093,0.31072698269795557,-0.3177889595774547
86,Exp1,d11042021,l6WpQ,deliberation,0.0,3.0,38.0,42.0,55.0,Picc1n.jpg,Lewic1.jpg,78.0,85.0,0.0,-1.0,0.0,55.0,42.0,2.128,-0.3350988494706518,-7.0,0.13417756071048076,0.38134675149294545,-0.2471691907824647
87,Exp1,d11042021,l6WpQ,deliberation,1.0,3.0,39.0,23.0,24.0,Lewib1.jpg,Dekoa1.jpg,88.0,74.0,0.0,-1.0,1.0,23.0,24.0,2.075,-0.3677488484386081,14.0,0.4872764046854303,-0.007061976879499093,0.49433838156492943
88,Exp1,d11042021,l6WpQ,deliberation,0.0,3.0,40.0,0.0,51.0,Gorkc1.jpg,Gora1n.jpg,95.0,91.0,0.0,1.0,1.0,0.0,51.0,1.261,-0.8692035495691073,4.0,0.734445595467895,0.5932060578779152,0.14123953758997976
89,Exp1,d11042021,l6WpQ,deliberation,0.0,3.0,41.0,7.0,43.0,Pica1n.jpg,Picac1.jpg,82.0,94.0,0.0,1.0,0.0,43.0,7.0,1.318,-0.8340893997356448,-12.0,0.27541709830046057,0.6991357110704001,-0.4237186127699395
90,Exp1,d11042021,l6WpQ,deliberation,0.0,3.0,42.0,45.0,47.0,Klia1n.jpg,Kupkd1.jpg,70.0,86.0,0.0,-1.0,0.0,47.0,45.0,2.731,0.036371893504398296,-16.0,-0.14830151446947892,0.41665663589044044,-0.5649581503599194
91,Exp1,d11042021,l6WpQ,deliberation,1.0,3.0,43.0,10.0,46.0,Stera1.jpg,Deka1n.jpg,95.0,85.0,0.0,1.0,1.0,10.0,46.0,1.883,-0.4860280899829028,10.0,0.734445595467895,0.38134675149294545,0.35309884397494956
92,Exp1,d11042021,l6WpQ,deliberation,0.0,3.0,44.0,30.0,39.0,Lasse1.jpg,Dekb1n.jpg,92.0,84.0,0.0,1.0,1.0,30.0,39.0,1.409,-0.7780299675453801,8.0,0.6285159422754102,0.3460368670954505,0.2824790751799597
93,Exp1,d11042021,l6WpQ,deliberation,1.0,3.0,45.0,36.0,12.0,Gorkf1.jpg,Kupkc1.jpg,80.0,31.0,0.0,-1.0,1.0,36.0,12.0,1.565,-0.6819280837906408,49.0,0.20479732950547067,-1.5253870059717825,1.730184335477253
94,Exp1,d11042021,l6WpQ,deliberation,1.0,3.0,46.0,1.0,29.0,Lewia1.jpg,Clifb1.jpg,94.0,38.0,0.0,-1.0,1.0,1.0,29.0,1.087,-0.9763941122186243,56.0,0.6991357110704001,-1.2782178151893175,1.9773535262597175
95,Exp1,d11042021,l6WpQ,deliberation,0.0,3.0,47.0,25.0,32.0,Clifa1.jpg,Macka1.jpg,33.0,89.0,0.0,1.0,0.0,32.0,25.0,1.474,-0.7379875159809054,-56.0,-1.4547672371767923,0.5225862890829253,-1.9773535262597175
96,Exp1,d11032021,GCq3m,deliberation,0.0,1.0,0.0,53.0,5.0,Gorka1.jpg,Kupb1n.jpg,8.0,15.0,0.0,-1.0,0.0,5.0,53.0,0.995,-0.676421022061471,-7.0,-0.4337644503706368,0.2434885948177182,-0.677253045188355
97,Exp1,d11032021,GCq3m,deliberation,0.0,1.0,1.0,14.0,25.0,Kupkb1.jpg,Clifa1.jpg,13.0,8.0,0.0,1.0,1.0,14.0,25.0,0.638,-1.1729150953093663,5.0,0.04998772476390248,-0.4337644503706368,0.4837521751345393
98,Exp1,d11032021,GCq3m,deliberation,0.0,1.0,2.0,51.0,34.0,Gora1n.jpg,Monb1n.jpg,6.0,11.0,0.0,1.0,0.0,34.0,51.0,0.596,-1.2313261627502954,-5.0,-0.6272653204244526,-0.14351314528991324,-0.4837521751345394
99,Exp1,d11032021,GCq3m,deliberation,1.0,1.0,3.0,56.0,12.0,Luisc1.jpg,Kupkc1.jpg,14.0,10.0,1.0,-1.0,1.0,56.0,12.0,0.469,-1.4079501047740561,4.0,0.14673815979081034,-0.24026358031682113,0.38700174010763144
100,Exp1,d11032021,GCq3m,deliberation,1.0,1.0,4.0,17.0,11.0,Picab1.jpg,Wdekb1.jpg,14.0,10.0,1.0,1.0,1.0,17.0,11.0,0.766,-0.9949004135846308,4.0,0.14673815979081034,-0.24026358031682113,0.38700174010763144
101,Exp1,d11032021,GCq3m,deliberation,1.0,1.0,5.0,27.0,28.0,Vinb1n.jpg,Krasa1.jpg,6.0,8.0,1.0,-1.0,1.0,27.0,28.0,1.696,0.29848750832165116,-2.0,-0.6272653204244526,-0.4337644503706368,-0.19350087005381578
102,Exp1,d11032021,GCq3m,deliberation,1.0,1.0,6.0,59.0,13.0,Kraa1n.jpg,Picak1.jpg,12.0,7.0,1.0,-1.0,1.0,59.0,13.0,1.904,0.5877613661243465,5.0,-0.04676271026300539,-0.5305148853975447,0.4837521751345393
103,Exp1,d11032021,GCq3m,deliberation,1.0,1.0,7.0,26.0,22.0,Clib1n.jpg,Macb1n.jpg,12.0,10.0,1.0,1.0,1.0,26.0,22.0,1.675,0.26928197460118686,2.0,-0.04676271026300539,-0.24026358031682113,0.19350087005381575
104,Exp1,d11032021,GCq3m,deliberation,1.0,1.0,8.0,42.0,33.0,Picc1n.jpg,Kupc1n.jpg,5.0,8.0,1.0,-1.0,0.0,33.0,42.0,2.005,0.7282260759227706,-3.0,-0.7240157554513604,-0.4337644503706368,-0.2902513050807236
105,Exp1,d11032021,GCq3m,deliberation,0.0,1.0,9.0,41.0,4.0,Vincb1.jpg,Mackb1.jpg,10.0,5.0,0.0,-1.0,1.0,41.0,4.0,2.715,1.7156512636146632,5.0,-0.24026358031682113,-0.7240157554513604,0.4837521751345393
106,Exp1,d11032021,GCq3m,deliberation,1.0,1.0,10.0,21.0,10.0,Lewb1n.jpg,Stera1.jpg,8.0,8.0,1.0,1.0,0.0,10.0,21.0,1.705,0.31100416563042177,0.0,-0.4337644503706368,-0.4337644503706368,0.0
107,Exp1,d11032021,GCq3m,deliberation,0.0,1.0,11.0,48.0,46.0,Picb1n.jpg,Deka1n.jpg,10.0,19.0,0.0,1.0,0.0,46.0,48.0,1.782,0.418091122605458,-9.0,-0.24026358031682113,0.6304903349253497,-0.8707539152421708
108,Exp1,d11032021,GCq3m,deliberation,0.0,1.0,12.0,47.0,1.0,Kupkd1.jpg,Lewia1.jpg,12.0,9.0,0.0,-1.0,0.0,1.0,47.0,2.901,1.9743288479959196,3.0,-0.04676271026300539,-0.337014015343729,0.2902513050807236
109,Exp1,d11032021,GCq3m,deliberation,1.0,1.0,13.0,43.0,50.0,Picac1.jpg,Gorke1.jpg,14.0,8.0,1.0,1.0,0.0,50.0,43.0,3.003,2.1161842974953187,6.0,0.14673815979081034,-0.4337644503706368,0.5805026101614472
110,Exp1,d11032021,GCq3m,deliberation,0.0,1.0,14.0,40.0,3.0,Krab1n.jpg,Fogeg1.jpg,5.0,18.0,0.0,1.0,0.0,3.0,40.0,2.168,0.954916647181614,-13.0,-0.7240157554513604,0.5337398998984418,-1.2577556553498024
111,Exp1,d11032021,GCq3m,deliberation,0.0,1.0,15.0,35.0,36.0,Wdeka1.jpg,Gorkf1.jpg,5.0,7.0,0.0,-1.0,1.0,35.0,36.0,1.764,0.393057807987917,-2.0,-0.7240157554513604,-0.5305148853975447,-0.19350087005381578
112,Exp1,d11032021,GCq3m,deliberation,1.0,2.0,16.0,59.0,13.0,Kraa1n.jpg,Picak1.jpg,12.0,7.0,0.0,-1.0,1.0,59.0,13.0,2.052,0.7935908418685721,5.0,-0.04676271026300539,-0.5305148853975447,0.4837521751345393
113,Exp1,d11032021,GCq3m,deliberation,0.0,2.0,17.0,40.0,3.0,Krab1n.jpg,Fogeg1.jpg,5.0,18.0,1.0,1.0,0.0,3.0,40.0,1.159,-0.4483397111016535,-13.0,-0.7240157554513604,0.5337398998984418,-1.2577556553498024
114,Exp1,d11032021,GCq3m,deliberation,1.0,2.0,18.0,42.0,33.0,Picc1n.jpg,Kupc1n.jpg,5.0,8.0,0.0,-1.0,0.0,33.0,42.0,1.657,0.2442486599836459,-3.0,-0.7240157554513604,-0.4337644503706368,-0.2902513050807236
115,Exp1,d11032021,GCq3m,deliberation,0.0,2.0,19.0,48.0,46.0,Picb1n.jpg,Deka1n.jpg,10.0,19.0,1.0,1.0,0.0,46.0,48.0,0.869,-0.8516542243842576,-9.0,-0.24026358031682113,0.6304903349253497,-0.8707539152421708
116,Exp1,d11032021,GCq3m,deliberation,0.0,2.0,20.0,53.0,5.0,Gorka1.jpg,Kupb1n.jpg,8.0,15.0,1.0,-1.0,0.0,5.0,53.0,1.932,0.6267020777516323,-7.0,-0.4337644503706368,0.2434885948177182,-0.677253045188355
117,Exp1,d11032021,GCq3m,deliberation,1.0,2.0,21.0,17.0,11.0,Picab1.jpg,Wdekb1.jpg,14.0,10.0,0.0,1.0,1.0,17.0,11.0,1.118,-0.5053600388416077,4.0,0.14673815979081034,-0.24026358031682113,0.38700174010763144
118,Exp1,d11032021,GCq3m,deliberation,1.0,2.0,22.0,27.0,28.0,Vinb1n.jpg,Krasa1.jpg,6.0,8.0,0.0,-1.0,1.0,27.0,28.0,1.866,0.5349132574873158,-2.0,-0.6272653204244526,-0.4337644503706368,-0.19350087005381578
119,Exp1,d11032021,GCq3m,deliberation,1.0,2.0,23.0,56.0,12.0,Luisc1.jpg,Kupkc1.jpg,14.0,10.0,0.0,-1.0,1.0,56.0,12.0,1.236,-0.3412527541266173,4.0,0.14673815979081034,-0.24026358031682113,0.38700174010763144
120,Exp1,d11032021,GCq3m,deliberation,0.0,2.0,24.0,41.0,4.0,Vincb1.jpg,Mackb1.jpg,10.0,5.0,1.0,-1.0,1.0,41.0,4.0,1.518,0.050935841548190815,5.0,-0.24026358031682113,-0.7240157554513604,0.4837521751345393
121,Exp1,d11032021,GCq3m,deliberation,0.0,2.0,25.0,35.0,36.0,Wdeka1.jpg,Gorkf1.jpg,5.0,7.0,1.0,-1.0,1.0,35.0,36.0,2.913,1.9910177244076135,-2.0,-0.7240157554513604,-0.5305148853975447,-0.19350087005381578
122,Exp1,d11032021,GCq3m,deliberation,0.0,2.0,26.0,47.0,1.0,Kupkd1.jpg,Lewia1.jpg,12.0,9.0,1.0,-1.0,0.0,1.0,47.0,1.665,0.2553745775914419,3.0,-0.04676271026300539,-0.337014015343729,0.2902513050807236
123,Exp1,d11032021,GCq3m,deliberation,1.0,2.0,27.0,26.0,22.0,Clib1n.jpg,Macb1n.jpg,12.0,10.0,0.0,1.0,1.0,26.0,22.0,3.081,2.224661994171329,2.0,-0.04676271026300539,-0.24026358031682113,0.19350087005381575
124,Exp1,d11032021,GCq3m,deliberation,0.0,2.0,28.0,51.0,34.0,Gora1n.jpg,Monb1n.jpg,6.0,11.0,1.0,1.0,0.0,34.0,51.0,0.982,-0.6945006381741395,-5.0,-0.6272653204244526,-0.14351314528991324,-0.4837521751345394
125,Exp1,d11032021,GCq3m,deliberation,1.0,2.0,29.0,43.0,50.0,Picac1.jpg,Gorke1.jpg,14.0,8.0,0.0,1.0,0.0,50.0,43.0,2.053,0.7949815815695465,6.0,0.14673815979081034,-0.4337644503706368,0.5805026101614472
126,Exp1,d11032021,GCq3m,deliberation,1.0,2.0,30.0,21.0,10.0,Lewb1n.jpg,Stera1.jpg,8.0,8.0,0.0,1.0,0.0,10.0,21.0,1.595,0.158022798523227,0.0,-0.4337644503706368,-0.4337644503706368,0.0
127,Exp1,d11032021,GCq3m,deliberation,0.0,2.0,31.0,14.0,25.0,Kupkb1.jpg,Clifa1.jpg,13.0,8.0,1.0,1.0,1.0,14.0,25.0,0.837,-0.8961578948154416,5.0,0.04998772476390248,-0.4337644503706368,0.4837521751345393
128,Exp1,d11032021,GCq3m,deliberation,1.0,3.0,32.0,21.0,10.0,Lewb1n.jpg,Stera1.jpg,8.0,8.0,0.0,1.0,0.0,10.0,21.0,3.055,2.1885027619459927,0.0,-0.4337644503706368,-0.4337644503706368,0.0
129,Exp1,d11032021,GCq3m,deliberation,0.0,3.0,33.0,41.0,4.0,Vincb1.jpg,Mackb1.jpg,10.0,5.0,0.0,-1.0,1.0,41.0,4.0,1.338,-0.19939730462721852,5.0,-0.24026358031682113,-0.7240157554513604,0.4837521751345393
130,Exp1,d11032021,GCq3m,deliberation,1.0,3.0,34.0,42.0,33.0,Picc1n.jpg,Kupc1n.jpg,5.0,8.0,0.0,-1.0,0.0,33.0,42.0,1.357,-0.1729732503087032,-3.0,-0.7240157554513604,-0.4337644503706368,-0.2902513050807236
131,Exp1,d11032021,GCq3m,deliberation,0.0,3.0,35.0,35.0,36.0,Wdeka1.jpg,Gorkf1.jpg,5.0,7.0,0.0,-1.0,1.0,35.0,36.0,1.17,-0.43304157439093416,-2.0,-0.7240157554513604,-0.5305148853975447,-0.19350087005381578
132,Exp1,d11032021,GCq3m,deliberation,1.0,3.0,36.0,26.0,22.0,Clib1n.jpg,Macb1n.jpg,12.0,10.0,0.0,1.0,1.0,26.0,22.0,0.767,-0.9935096738836563,2.0,-0.04676271026300539,-0.24026358031682113,0.19350087005381575
133,Exp1,d11032021,GCq3m,deliberation,0.0,3.0,37.0,40.0,3.0,Krab1n.jpg,Fogeg1.jpg,5.0,18.0,0.0,1.0,0.0,3.0,40.0,1.219,-0.3648953290431836,-13.0,-0.7240157554513604,0.5337398998984418,-1.2577556553498024
134,Exp1,d11032021,GCq3m,deliberation,1.0,3.0,38.0,56.0,12.0,Luisc1.jpg,Kupkc1.jpg,14.0,10.0,0.0,-1.0,1.0,56.0,12.0,1.135,-0.48171746392504144,4.0,0.14673815979081034,-0.24026358031682113,0.38700174010763144
135,Exp1,d11032021,GCq3m,deliberation,1.0,3.0,39.0,59.0,13.0,Kraa1n.jpg,Picak1.jpg,12.0,7.0,0.0,-1.0,1.0,59.0,13.0,0.769,-0.9907281944817072,5.0,-0.04676271026300539,-0.5305148853975447,0.4837521751345393
136,Exp1,d11032021,GCq3m,deliberation,0.0,3.0,40.0,14.0,25.0,Kupkb1.jpg,Clifa1.jpg,13.0,8.0,0.0,1.0,1.0,14.0,25.0,0.634,-1.1784780541132645,5.0,0.04998772476390248,-0.4337644503706368,0.4837521751345393
137,Exp1,d11032021,GCq3m,deliberation,0.0,3.0,41.0,48.0,46.0,Picb1n.jpg,Deka1n.jpg,10.0,19.0,0.0,1.0,0.0,46.0,48.0,0.836,-0.8975486345164161,-9.0,-0.24026358031682113,0.6304903349253497,-0.8707539152421708
138,Exp1,d11032021,GCq3m,deliberation,1.0,3.0,42.0,43.0,50.0,Picac1.jpg,Gorke1.jpg,14.0,8.0,0.0,1.0,0.0,50.0,43.0,1.037,-0.6180099546205423,6.0,0.14673815979081034,-0.4337644503706368,0.5805026101614472
139,Exp1,d11032021,GCq3m,deliberation,0.0,3.0,43.0,47.0,1.0,Kupkd1.jpg,Lewia1.jpg,12.0,9.0,0.0,-1.0,0.0,1.0,47.0,0.73,-1.0449670428197126,3.0,-0.04676271026300539,-0.337014015343729,0.2902513050807236
140,Exp1,d11032021,GCq3m,deliberation,1.0,3.0,44.0,27.0,28.0,Vinb1n.jpg,Krasa1.jpg,6.0,8.0,0.0,-1.0,1.0,27.0,28.0,0.94,-0.7529117056150684,-2.0,-0.6272653204244526,-0.4337644503706368,-0.19350087005381578
141,Exp1,d11032021,GCq3m,deliberation,0.0,3.0,45.0,53.0,5.0,Gorka1.jpg,Kupb1n.jpg,8.0,15.0,0.0,-1.0,0.0,5.0,53.0,0.888,-0.8252301700657422,-7.0,-0.4337644503706368,0.2434885948177182,-0.677253045188355
142,Exp1,d11032021,GCq3m,deliberation,0.0,3.0,46.0,51.0,34.0,Gora1n.jpg,Monb1n.jpg,6.0,11.0,0.0,1.0,0.0,34.0,51.0,1.056,-0.5915859003020266,-5.0,-0.6272653204244526,-0.14351314528991324,-0.4837521751345394
143,Exp1,d11032021,GCq3m,deliberation,1.0,3.0,47.0,17.0,11.0,Picab1.jpg,Wdekb1.jpg,14.0,10.0,0.0,1.0,1.0,17.0,11.0,0.86,-0.8641708816930281,4.0,0.14673815979081034,-0.24026358031682113,0.38700174010763144
144,Exp1,d11032021,qBGkp,deliberation,1.0,1.0,0.0,34.0,59.0,Monb1n.jpg,Kraa1n.jpg,18.0,19.0,1.0,1.0,1.0,34.0,59.0,1.243,-0.7779870982156251,-1.0,0.33955261072728005,0.4020469562599083,-0.062494345532628226
145,Exp1,d11032021,qBGkp,deliberation,1.0,1.0,1.0,8.0,54.0,Klina1.jpg,Kupka1.jpg,2.0,13.0,1.0,-1.0,1.0,8.0,54.0,5.146,1.8999832638927054,-11.0,-0.6603569177947716,0.027080883064138913,-0.6874378008589105
146,Exp1,d11032021,qBGkp,deliberation,0.0,1.0,2.0,24.0,11.0,Dekoa1.jpg,Wdekb1.jpg,20.0,2.0,0.0,-1.0,1.0,24.0,11.0,2.222,-0.10626458104830365,18.0,0.4645413017925365,-0.6603569177947716,1.124898219587308
147,Exp1,d11032021,qBGkp,deliberation,0.0,1.0,3.0,17.0,18.0,Picab1.jpg,Krasb1.jpg,20.0,8.0,0.0,1.0,1.0,17.0,18.0,6.02,2.4996619972984653,12.0,0.4645413017925365,-0.2853908445990022,0.7499321463915387
148,Exp1,d11032021,qBGkp,deliberation,1.0,1.0,4.0,41.0,44.0,Vincb1.jpg,Lassf1.jpg,0.0,6.0,1.0,1.0,1.0,41.0,44.0,4.441,1.4162607157793636,-6.0,-0.785345608860028,-0.41037953566425867,-0.37496607319576936
149,Exp1,d11032021,qBGkp,deliberation,0.0,1.0,5.0,10.0,4.0,Stera1.jpg,Mackb1.jpg,0.0,3.0,0.0,1.0,1.0,10.0,4.0,3.573,0.8206987700171215,-3.0,-0.785345608860028,-0.5978625722621433,-0.18748303659788468
150,Exp1,d11032021,qBGkp,deliberation,0.0,1.0,6.0,1.0,37.0,Lewia1.jpg,Mondb1.jpg,2.0,1.0,0.0,-1.0,1.0,1.0,37.0,3.838,1.0025235576058247,1.0,-0.6603569177947716,-0.7228512633273998,0.062494345532628226
151,Exp1,d11032021,qBGkp,deliberation,0.0,1.0,7.0,40.0,16.0,Krab1n.jpg,Lewa1n.jpg,5.0,4.0,0.0,-1.0,1.0,40.0,16.0,4.482,1.4443920980100688,1.0,-0.4728738811968869,-0.5353682267295151,0.062494345532628226
152,Exp1,d11032021,qBGkp,deliberation,1.0,1.0,8.0,14.0,45.0,Kupkb1.jpg,Klia1n.jpg,26.0,2.0,1.0,-1.0,1.0,14.0,45.0,1.728,-0.44521343036460276,24.0,0.8395073749883059,-0.6603569177947716,1.4998642927830774
153,Exp1,d11032021,qBGkp,deliberation,1.0,1.0,9.0,28.0,33.0,Krasa1.jpg,Kupc1n.jpg,1.0,0.0,1.0,1.0,0.0,33.0,28.0,5.988,2.4777057965330376,1.0,-0.7228512633273998,-0.785345608860028,0.062494345532628226
154,Exp1,d11032021,qBGkp,deliberation,0.0,1.0,10.0,49.0,0.0,Hinda1.jpg,Gorkc1.jpg,5.0,18.0,0.0,1.0,1.0,49.0,0.0,3.682,0.8954870788743616,-13.0,-0.4728738811968869,0.33955261072728005,-0.8124264919241669
155,Exp1,d11032021,qBGkp,deliberation,1.0,1.0,11.0,20.0,53.0,Gorc1n.jpg,Gorka1.jpg,1.0,0.0,1.0,-1.0,0.0,53.0,20.0,2.565,0.1290784459061307,1.0,-0.7228512633273998,-0.785345608860028,0.062494345532628226
156,Exp1,d11032021,qBGkp,deliberation,0.0,1.0,12.0,32.0,12.0,Macka1.jpg,Kupkc1.jpg,16.0,4.0,0.0,1.0,1.0,32.0,12.0,6.381,2.747355387183454,12.0,0.2145639196620236,-0.5353682267295151,0.7499321463915387
157,Exp1,d11032021,qBGkp,deliberation,0.0,1.0,13.0,31.0,5.0,Maca1n.jpg,Kupb1n.jpg,9.0,15.0,0.0,-1.0,0.0,5.0,31.0,2.14,-0.1625273455097135,-6.0,-0.222896499066374,0.15206957412939537,-0.37496607319576936
158,Exp1,d11032021,qBGkp,deliberation,1.0,1.0,14.0,27.0,36.0,Vinb1n.jpg,Gorkf1.jpg,1.0,10.0,1.0,-1.0,0.0,36.0,27.0,1.203,-0.8054323491724105,-9.0,-0.7228512633273998,-0.16040215353374576,-0.562449109793654
159,Exp1,d11032021,qBGkp,deliberation,1.0,1.0,15.0,7.0,15.0,Pica1n.jpg,Clia1n.jpg,6.0,20.0,1.0,1.0,1.0,7.0,15.0,3.981,1.100640329776332,-14.0,-0.41037953566425867,0.4645413017925365,-0.8749208374567952
160,Exp1,d11032021,qBGkp,deliberation,1.0,2.0,16.0,41.0,44.0,Vincb1.jpg,Lassf1.jpg,0.0,6.0,0.0,1.0,1.0,41.0,44.0,2.704,0.22445069298096,-6.0,-0.785345608860028,-0.41037953566425867,-0.37496607319576936
161,Exp1,d11032021,qBGkp,deliberation,0.0,2.0,17.0,1.0,37.0,Lewia1.jpg,Mondb1.jpg,2.0,1.0,1.0,-1.0,1.0,1.0,37.0,2.463,0.05909305596632816,1.0,-0.6603569177947716,-0.7228512633273998,0.062494345532628226
162,Exp1,d11032021,qBGkp,deliberation,0.0,2.0,18.0,17.0,18.0,Picab1.jpg,Krasb1.jpg,20.0,8.0,1.0,1.0,1.0,17.0,18.0,1.508,-0.5961623106269222,12.0,0.4645413017925365,-0.2853908445990022,0.7499321463915387
163,Exp1,d11032021,qBGkp,deliberation,1.0,2.0,19.0,7.0,15.0,Pica1n.jpg,Clia1n.jpg,6.0,20.0,0.0,1.0,1.0,7.0,15.0,1.841,-0.36768059641168416,-14.0,-0.41037953566425867,0.4645413017925365,-0.8749208374567952
164,Exp1,d11032021,qBGkp,deliberation,1.0,2.0,20.0,20.0,53.0,Gorc1n.jpg,Gorka1.jpg,1.0,0.0,0.0,-1.0,0.0,53.0,20.0,2.611,0.16064048450643406,1.0,-0.7228512633273998,-0.785345608860028,0.062494345532628226
165,Exp1,d11032021,qBGkp,deliberation,0.0,2.0,21.0,49.0,0.0,Hinda1.jpg,Gorkc1.jpg,5.0,18.0,1.0,1.0,1.0,49.0,0.0,1.438,-0.6441914998012965,-13.0,-0.4728738811968869,0.33955261072728005,-0.8124264919241669
166,Exp1,d11032021,qBGkp,deliberation,1.0,2.0,22.0,28.0,33.0,Krasa1.jpg,Kupc1n.jpg,1.0,0.0,0.0,1.0,0.0,33.0,28.0,2.248,-0.088425167926393,1.0,-0.7228512633273998,-0.785345608860028,0.062494345532628226
167,Exp1,d11032021,qBGkp,deliberation,0.0,2.0,23.0,24.0,11.0,Dekoa1.jpg,Wdekb1.jpg,20.0,2.0,1.0,-1.0,1.0,24.0,11.0,1.955,-0.2894616311848458,18.0,0.4645413017925365,-0.6603569177947716,1.124898219587308
168,Exp1,d11032021,qBGkp,deliberation,0.0,2.0,24.0,32.0,12.0,Macka1.jpg,Kupkc1.jpg,16.0,4.0,1.0,1.0,1.0,32.0,12.0,1.589,-0.5405856774394319,12.0,0.2145639196620236,-0.5353682267295151,0.7499321463915387
169,Exp1,d11032021,qBGkp,deliberation,1.0,2.0,25.0,34.0,59.0,Monb1n.jpg,Kraa1n.jpg,18.0,19.0,0.0,1.0,1.0,34.0,59.0,2.015,-0.24829375474966775,-1.0,0.33955261072728005,0.4020469562599083,-0.062494345532628226
170,Exp1,d11032021,qBGkp,deliberation,1.0,2.0,26.0,14.0,45.0,Kupkb1.jpg,Klia1n.jpg,26.0,2.0,0.0,-1.0,1.0,14.0,45.0,1.056,-0.9062936464385966,24.0,0.8395073749883059,-0.6603569177947716,1.4998642927830774
171,Exp1,d11032021,qBGkp,deliberation,0.0,2.0,27.0,10.0,4.0,Stera1.jpg,Mackb1.jpg,0.0,3.0,1.0,1.0,1.0,10.0,4.0,2.033,-0.23594339181911447,-3.0,-0.785345608860028,-0.5978625722621433,-0.18748303659788468
172,Exp1,d11032021,qBGkp,deliberation,1.0,2.0,28.0,27.0,36.0,Vinb1n.jpg,Gorkf1.jpg,1.0,10.0,0.0,-1.0,0.0,36.0,27.0,2.391,0.009691604244114483,-9.0,-0.7228512633273998,-0.16040215353374576,-0.562449109793654
173,Exp1,d11032021,qBGkp,deliberation,1.0,2.0,29.0,8.0,54.0,Klina1.jpg,Kupka1.jpg,2.0,13.0,0.0,-1.0,1.0,8.0,54.0,2.117,-0.1783083648098652,-11.0,-0.6603569177947716,0.027080883064138913,-0.6874378008589105
174,Exp1,d11032021,qBGkp,deliberation,0.0,2.0,30.0,40.0,16.0,Krab1n.jpg,Lewa1n.jpg,5.0,4.0,1.0,-1.0,0.0,16.0,40.0,4.227,1.2694286231605623,1.0,-0.4728738811968869,-0.5353682267295151,0.062494345532628226
175,Exp1,d11032021,qBGkp,deliberation,0.0,2.0,31.0,31.0,5.0,Maca1n.jpg,Kupb1n.jpg,9.0,15.0,1.0,-1.0,0.0,5.0,31.0,2.693,0.2169032489678439,-6.0,-0.222896499066374,0.15206957412939537,-0.37496607319576936
176,Exp1,d11032021,qBGkp,deliberation,1.0,3.0,32.0,14.0,45.0,Kupkb1.jpg,Klia1n.jpg,26.0,2.0,0.0,-1.0,1.0,14.0,45.0,2.546,0.11604195170165758,24.0,0.8395073749883059,-0.6603569177947716,1.4998642927830774
177,Exp1,d11032021,qBGkp,deliberation,1.0,3.0,33.0,28.0,33.0,Krasa1.jpg,Kupc1n.jpg,1.0,0.0,0.0,1.0,0.0,33.0,28.0,1.482,-0.6140017237488327,1.0,-0.7228512633273998,-0.785345608860028,0.062494345532628226
178,Exp1,d11032021,qBGkp,deliberation,1.0,3.0,34.0,41.0,44.0,Vincb1.jpg,Lassf1.jpg,0.0,6.0,0.0,1.0,1.0,41.0,44.0,1.315,-0.7285856464934115,-6.0,-0.785345608860028,-0.41037953566425867,-0.37496607319576936
179,Exp1,d11032021,qBGkp,deliberation,0.0,3.0,35.0,32.0,12.0,Macka1.jpg,Kupkc1.jpg,16.0,4.0,0.0,1.0,1.0,32.0,12.0,1.175,-0.8246440248421602,12.0,0.2145639196620236,-0.5353682267295151,0.7499321463915387
180,Exp1,d11032021,qBGkp,deliberation,1.0,3.0,36.0,34.0,59.0,Monb1n.jpg,Kraa1n.jpg,18.0,19.0,0.0,1.0,1.0,34.0,59.0,1.331,-0.7176075461106973,-1.0,0.33955261072728005,0.4020469562599083,-0.062494345532628226
181,Exp1,d11032021,qBGkp,deliberation,0.0,3.0,37.0,40.0,16.0,Krab1n.jpg,Lewa1n.jpg,5.0,4.0,0.0,-1.0,0.0,16.0,40.0,1.359,-0.6983958704409476,1.0,-0.4728738811968869,-0.5353682267295151,0.062494345532628226
182,Exp1,d11032021,qBGkp,deliberation,0.0,3.0,38.0,17.0,18.0,Picab1.jpg,Krasb1.jpg,20.0,8.0,0.0,1.0,1.0,17.0,18.0,1.165,-0.8315053375813565,12.0,0.4645413017925365,-0.2853908445990022,0.7499321463915387
183,Exp1,d11032021,qBGkp,deliberation,1.0,3.0,39.0,27.0,36.0,Vinb1n.jpg,Gorkf1.jpg,1.0,10.0,0.0,-1.0,0.0,36.0,27.0,1.303,-0.7368192217804471,-9.0,-0.7228512633273998,-0.16040215353374576,-0.562449109793654
184,Exp1,d11032021,qBGkp,deliberation,1.0,3.0,40.0,7.0,15.0,Pica1n.jpg,Clia1n.jpg,6.0,20.0,0.0,1.0,1.0,7.0,15.0,0.995,-0.9481476541476942,-14.0,-0.41037953566425867,0.4645413017925365,-0.8749208374567952
185,Exp1,d11032021,qBGkp,deliberation,0.0,3.0,41.0,1.0,37.0,Lewia1.jpg,Mondb1.jpg,2.0,1.0,0.0,-1.0,1.0,1.0,37.0,0.913,-1.0044104186091043,1.0,-0.6603569177947716,-0.7228512633273998,0.062494345532628226
186,Exp1,d11032021,qBGkp,deliberation,0.0,3.0,42.0,24.0,11.0,Dekoa1.jpg,Wdekb1.jpg,20.0,2.0,0.0,-1.0,1.0,24.0,11.0,0.791,-1.0881184340272996,18.0,0.4645413017925365,-0.6603569177947716,1.124898219587308
187,Exp1,d11032021,qBGkp,deliberation,1.0,3.0,43.0,8.0,54.0,Klina1.jpg,Kupka1.jpg,2.0,13.0,0.0,-1.0,1.0,8.0,54.0,1.262,-0.7649506040111521,-11.0,-0.6603569177947716,0.027080883064138913,-0.6874378008589105
188,Exp1,d11032021,qBGkp,deliberation,1.0,3.0,44.0,20.0,53.0,Gorc1n.jpg,Gorka1.jpg,1.0,0.0,0.0,-1.0,0.0,53.0,20.0,1.686,-0.4740309438692274,1.0,-0.7228512633273998,-0.785345608860028,0.062494345532628226
189,Exp1,d11032021,qBGkp,deliberation,0.0,3.0,45.0,31.0,5.0,Maca1n.jpg,Kupb1n.jpg,9.0,15.0,0.0,-1.0,0.0,5.0,31.0,1.082,-0.8884542333166862,-6.0,-0.222896499066374,0.15206957412939537,-0.37496607319576936
190,Exp1,d11032021,qBGkp,deliberation,0.0,3.0,46.0,10.0,4.0,Stera1.jpg,Mackb1.jpg,0.0,3.0,0.0,1.0,1.0,10.0,4.0,1.327,-0.7203520712063759,-3.0,-0.785345608860028,-0.5978625722621433,-0.18748303659788468
191,Exp1,d11032021,qBGkp,deliberation,0.0,3.0,47.0,49.0,0.0,Hinda1.jpg,Gorkc1.jpg,5.0,18.0,0.0,1.0,1.0,49.0,0.0,0.836,-1.0572425267009162,-13.0,-0.4728738811968869,0.33955261072728005,-0.8124264919241669
192,Exp1,d11032021,BcmPt,deliberation,1.0,1.0,0.0,4.0,23.0,Mackb1.jpg,Lewib1.jpg,63.0,69.0,1.0,1.0,1.0,4.0,23.0,1.597,0.1811489074766592,-6.0,0.5653590527002336,0.8246319940659458,-0.2592729413657122
193,Exp1,d11032021,BcmPt,deliberation,1.0,1.0,1.0,44.0,57.0,Lassf1.jpg,Lewc1n.jpg,43.0,68.0,1.0,1.0,0.0,57.0,44.0,3.088,1.9847750914345865,-25.0,-0.29888408518547366,0.7814198371716604,-1.080303922357134
194,Exp1,d11032021,BcmPt,deliberation,1.0,1.0,2.0,16.0,31.0,Lewa1n.jpg,Maca1n.jpg,50.0,32.0,1.0,-1.0,0.0,31.0,16.0,5.22,4.563803276678248,18.0,0.0036010130745238824,-0.7742178110226127,0.7778188240971365
195,Exp1,d11032021,BcmPt,deliberation,0.0,1.0,3.0,14.0,59.0,Kupkb1.jpg,Kraa1n.jpg,58.0,50.0,0.0,1.0,0.0,59.0,14.0,2.395,1.1464699636794935,8.0,0.3492982682288068,0.0036010130745238824,0.3456972551542829
196,Exp1,d11032021,BcmPt,deliberation,0.0,1.0,4.0,22.0,2.0,Macb1n.jpg,Dekob1.jpg,40.0,44.0,0.0,-1.0,1.0,22.0,2.0,3.398,2.35977449923268,-4.0,-0.4285205558683297,-0.2556719282911883,-0.17284862757714142
197,Exp1,d11032021,BcmPt,deliberation,0.0,1.0,5.0,53.0,24.0,Gorka1.jpg,Dekoa1.jpg,72.0,60.0,0.0,1.0,0.0,24.0,53.0,1.625,0.21501982172939027,12.0,0.9542684647488018,0.4357225820173775,0.5185458827314242
198,Exp1,d11032021,BcmPt,deliberation,0.0,1.0,6.0,5.0,19.0,Kupb1n.jpg,Macc1n.jpg,62.0,58.0,0.0,-1.0,0.0,19.0,5.0,1.671,0.2706648951445913,4.0,0.5221468958059482,0.3492982682288068,0.17284862757714142
199,Exp1,d11032021,BcmPt,deliberation,1.0,1.0,7.0,51.0,49.0,Gora1n.jpg,Hinda1.jpg,27.0,37.0,1.0,-1.0,0.0,49.0,51.0,1.71,0.31784223999660943,-10.0,-0.9902785954940394,-0.5581570265511858,-0.4321215689428536
200,Exp1,d11032021,BcmPt,deliberation,0.0,1.0,8.0,35.0,29.0,Wdeka1.jpg,Clifb1.jpg,61.0,56.0,0.0,1.0,0.0,29.0,35.0,1.469,0.026310442321317504,5.0,0.4789347389116629,0.26287395444023604,0.21606078447142685
201,Exp1,d11032021,BcmPt,deliberation,1.0,1.0,9.0,27.0,34.0,Vinb1n.jpg,Monb1n.jpg,66.0,28.0,1.0,1.0,1.0,27.0,34.0,1.847,0.48356778473318623,38.0,0.6949955233830897,-0.947066438599754,1.6420619619828436
202,Exp1,d11032021,BcmPt,deliberation,1.0,1.0,10.0,46.0,36.0,Deka1n.jpg,Gorkf1.jpg,58.0,60.0,1.0,-1.0,0.0,36.0,46.0,2.518,1.2952600512897046,-2.0,0.3492982682288068,0.4357225820173775,-0.08642431378857074
203,Exp1,d11032021,BcmPt,deliberation,0.0,1.0,11.0,17.0,1.0,Picab1.jpg,Lewia1.jpg,50.0,74.0,0.0,-1.0,0.0,1.0,17.0,1.568,0.14606831771490217,-24.0,0.0036010130745238824,1.0406927785373725,-1.0370917654628486
204,Exp1,d11032021,BcmPt,deliberation,0.0,1.0,12.0,8.0,15.0,Klina1.jpg,Clia1n.jpg,60.0,33.0,0.0,-1.0,0.0,15.0,8.0,1.765,0.38437439299304527,27.0,0.4357225820173775,-0.7310056541283273,1.1667282361457048
205,Exp1,d11032021,BcmPt,deliberation,1.0,1.0,13.0,9.0,56.0,Lassc1.jpg,Luisc1.jpg,30.0,45.0,1.0,-1.0,0.0,56.0,9.0,1.827,0.45937427455266405,-15.0,-0.8606421248111833,-0.21245977139690292,-0.6481823534142803
206,Exp1,d11032021,BcmPt,deliberation,1.0,1.0,14.0,13.0,50.0,Picak1.jpg,Gorke1.jpg,59.0,56.0,1.0,1.0,1.0,13.0,50.0,1.453,0.006955634176899758,3.0,0.39251042512309214,0.26287395444023604,0.1296364706828561
207,Exp1,d11032021,BcmPt,deliberation,0.0,1.0,15.0,42.0,40.0,Picc1n.jpg,Krab1n.jpg,38.0,61.0,0.0,1.0,1.0,42.0,40.0,1.105,-0.41401144296418596,-23.0,-0.5149448696569005,0.4789347389116629,-0.9938796085685633
208,Exp1,d11032021,BcmPt,deliberation,0.0,2.0,16.0,8.0,15.0,Klina1.jpg,Clia1n.jpg,60.0,33.0,1.0,-1.0,0.0,15.0,8.0,2.286,1.0146153331956478,27.0,0.4357225820173775,-0.7310056541283273,1.1667282361457048
209,Exp1,d11032021,BcmPt,deliberation,0.0,2.0,17.0,14.0,59.0,Kupkb1.jpg,Kraa1n.jpg,58.0,50.0,1.0,1.0,0.0,59.0,14.0,0.977,-0.5688499081195278,8.0,0.3492982682288068,0.0036010130745238824,0.3456972551542829
210,Exp1,d11032021,BcmPt,deliberation,0.0,2.0,18.0,5.0,19.0,Kupb1n.jpg,Macc1n.jpg,62.0,58.0,1.0,-1.0,1.0,5.0,19.0,1.721,0.33114867059589675,4.0,0.5221468958059482,0.3492982682288068,0.17284862757714142
211,Exp1,d11032021,BcmPt,deliberation,1.0,2.0,19.0,13.0,50.0,Picak1.jpg,Gorke1.jpg,59.0,56.0,0.0,1.0,1.0,13.0,50.0,1.982,0.6468739784517108,3.0,0.39251042512309214,0.26287395444023604,0.1296364706828561
212,Exp1,d11032021,BcmPt,deliberation,0.0,2.0,20.0,17.0,1.0,Picab1.jpg,Lewia1.jpg,50.0,74.0,1.0,-1.0,0.0,1.0,17.0,0.889,-0.6753013529138253,-24.0,0.0036010130745238824,1.0406927785373725,-1.0370917654628486
213,Exp1,d11032021,BcmPt,deliberation,1.0,2.0,21.0,46.0,36.0,Deka1n.jpg,Gorkf1.jpg,58.0,60.0,0.0,-1.0,1.0,46.0,36.0,1.438,-0.011189498458492013,-2.0,0.3492982682288068,0.4357225820173775,-0.08642431378857074
214,Exp1,d11032021,BcmPt,deliberation,1.0,2.0,22.0,44.0,57.0,Lassf1.jpg,Lewc1n.jpg,43.0,68.0,0.0,1.0,0.0,57.0,44.0,0.834,-0.7418335059102613,-25.0,-0.29888408518547366,0.7814198371716604,-1.080303922357134
215,Exp1,d11032021,BcmPt,deliberation,0.0,2.0,23.0,22.0,2.0,Macb1n.jpg,Dekob1.jpg,40.0,44.0,1.0,-1.0,0.0,2.0,22.0,1.774,0.3952614725742804,-4.0,-0.4285205558683297,-0.2556719282911883,-0.17284862757714142
216,Exp1,d11032021,BcmPt,deliberation,1.0,2.0,24.0,4.0,23.0,Mackb1.jpg,Lewib1.jpg,63.0,69.0,0.0,1.0,0.0,23.0,4.0,1.039,-0.49385002655990917,-6.0,0.5653590527002336,0.8246319940659458,-0.2592729413657122
217,Exp1,d11032021,BcmPt,deliberation,0.0,2.0,25.0,42.0,40.0,Picc1n.jpg,Krab1n.jpg,38.0,61.0,1.0,1.0,1.0,42.0,40.0,1.348,-0.12006029427084157,-23.0,-0.5149448696569005,0.4789347389116629,-0.9938796085685633
218,Exp1,d11032021,BcmPt,deliberation,1.0,2.0,26.0,27.0,34.0,Vinb1n.jpg,Monb1n.jpg,66.0,28.0,0.0,1.0,1.0,27.0,34.0,1.452,0.005745958667873515,38.0,0.6949955233830897,-0.947066438599754,1.6420619619828436
219,Exp1,d11032021,BcmPt,deliberation,1.0,2.0,27.0,16.0,31.0,Lewa1n.jpg,Maca1n.jpg,50.0,32.0,0.0,-1.0,1.0,16.0,31.0,1.522,0.09042324429970115,18.0,0.0036010130745238824,-0.7742178110226127,0.7778188240971365
220,Exp1,d11032021,BcmPt,deliberation,1.0,2.0,28.0,51.0,49.0,Gora1n.jpg,Hinda1.jpg,27.0,37.0,0.0,-1.0,0.0,49.0,51.0,0.868,-0.7007045386033736,-10.0,-0.9902785954940394,-0.5581570265511858,-0.4321215689428536
221,Exp1,d11032021,BcmPt,deliberation,1.0,2.0,29.0,9.0,56.0,Lassc1.jpg,Luisc1.jpg,30.0,45.0,0.0,-1.0,0.0,56.0,9.0,0.887,-0.6777207039318774,-15.0,-0.8606421248111833,-0.21245977139690292,-0.6481823534142803
222,Exp1,d11032021,BcmPt,deliberation,0.0,2.0,30.0,35.0,29.0,Wdeka1.jpg,Clifb1.jpg,61.0,56.0,1.0,1.0,0.0,29.0,35.0,0.679,-0.9293332098093079,5.0,0.4789347389116629,0.26287395444023604,0.21606078447142685
223,Exp1,d11032021,BcmPt,deliberation,0.0,2.0,31.0,53.0,24.0,Gorka1.jpg,Dekoa1.jpg,72.0,60.0,1.0,1.0,0.0,24.0,53.0,1.026,-0.5095758081772485,12.0,0.9542684647488018,0.4357225820173775,0.5185458827314242
224,Exp1,d11032021,BcmPt,deliberation,0.0,3.0,32.0,14.0,59.0,Kupkb1.jpg,Kraa1n.jpg,58.0,50.0,0.0,1.0,0.0,59.0,14.0,1.118,-0.3982856613468464,8.0,0.3492982682288068,0.0036010130745238824,0.3456972551542829
225,Exp1,d11032021,BcmPt,deliberation,0.0,3.0,33.0,53.0,24.0,Gorka1.jpg,Dekoa1.jpg,72.0,60.0,0.0,1.0,0.0,24.0,53.0,1.084,-0.4394146286537341,12.0,0.9542684647488018,0.4357225820173775,0.5185458827314242
226,Exp1,d11032021,BcmPt,deliberation,0.0,3.0,34.0,42.0,40.0,Picc1n.jpg,Krab1n.jpg,38.0,61.0,0.0,1.0,1.0,42.0,40.0,0.973,-0.5736886101556322,-23.0,-0.5149448696569005,0.4789347389116629,-0.9938796085685633
227,Exp1,d11032021,BcmPt,deliberation,1.0,3.0,35.0,46.0,36.0,Deka1n.jpg,Gorkf1.jpg,58.0,60.0,0.0,-1.0,1.0,46.0,36.0,0.919,-0.639011087643042,-2.0,0.3492982682288068,0.4357225820173775,-0.08642431378857074
228,Exp1,d11032021,BcmPt,deliberation,0.0,3.0,36.0,35.0,29.0,Wdeka1.jpg,Clifb1.jpg,61.0,56.0,0.0,1.0,0.0,29.0,35.0,0.623,-0.9970750383147701,5.0,0.4789347389116629,0.26287395444023604,0.21606078447142685
229,Exp1,d11032021,BcmPt,deliberation,1.0,3.0,37.0,44.0,57.0,Lassf1.jpg,Lewc1n.jpg,43.0,68.0,0.0,1.0,0.0,57.0,44.0,0.756,-0.8361881956142977,-25.0,-0.29888408518547366,0.7814198371716604,-1.080303922357134
230,Exp1,d11032021,BcmPt,deliberation,1.0,3.0,38.0,51.0,49.0,Gora1n.jpg,Hinda1.jpg,27.0,37.0,0.0,-1.0,0.0,49.0,51.0,0.946,-0.6063498488993372,-10.0,-0.9902785954940394,-0.5581570265511858,-0.4321215689428536
231,Exp1,d11032021,BcmPt,deliberation,1.0,3.0,39.0,16.0,31.0,Lewa1n.jpg,Maca1n.jpg,50.0,32.0,0.0,-1.0,1.0,16.0,31.0,0.822,-0.7563496120185745,18.0,0.0036010130745238824,-0.7742178110226127,0.7778188240971365
232,Exp1,d11032021,BcmPt,deliberation,0.0,3.0,40.0,5.0,19.0,Kupb1n.jpg,Macc1n.jpg,62.0,58.0,0.0,-1.0,0.0,19.0,5.0,0.855,-0.716430320220713,4.0,0.5221468958059482,0.3492982682288068,0.17284862757714142
233,Exp1,d11032021,BcmPt,deliberation,1.0,3.0,41.0,4.0,23.0,Mackb1.jpg,Lewib1.jpg,63.0,69.0,0.0,1.0,0.0,23.0,4.0,0.824,-0.7539302610005224,-6.0,0.5653590527002336,0.8246319940659458,-0.2592729413657122
234,Exp1,d11032021,BcmPt,deliberation,0.0,3.0,42.0,17.0,1.0,Picab1.jpg,Lewia1.jpg,50.0,74.0,0.0,-1.0,0.0,1.0,17.0,0.793,-0.7914302017803316,-24.0,0.0036010130745238824,1.0406927785373725,-1.0370917654628486
235,Exp1,d11032021,BcmPt,deliberation,1.0,3.0,43.0,13.0,50.0,Picak1.jpg,Gorke1.jpg,59.0,56.0,0.0,1.0,1.0,13.0,50.0,0.963,-0.5857853652458933,3.0,0.39251042512309214,0.26287395444023604,0.1296364706828561
236,Exp1,d11032021,BcmPt,deliberation,1.0,3.0,44.0,27.0,34.0,Vinb1n.jpg,Monb1n.jpg,66.0,28.0,0.0,1.0,1.0,27.0,34.0,1.009,-0.5301402918306924,38.0,0.6949955233830897,-0.947066438599754,1.6420619619828436
237,Exp1,d11032021,BcmPt,deliberation,0.0,3.0,45.0,22.0,2.0,Macb1n.jpg,Dekob1.jpg,40.0,44.0,0.0,-1.0,0.0,2.0,22.0,0.802,-0.7805431221990966,-4.0,-0.4285205558683297,-0.2556719282911883,-0.17284862757714142
238,Exp1,d11032021,BcmPt,deliberation,0.0,3.0,46.0,8.0,15.0,Klina1.jpg,Clia1n.jpg,60.0,33.0,0.0,-1.0,0.0,15.0,8.0,0.969,-0.5785273121917367,27.0,0.4357225820173775,-0.7310056541283273,1.1667282361457048
239,Exp1,d11032021,BcmPt,deliberation,1.0,3.0,47.0,9.0,56.0,Lassc1.jpg,Luisc1.jpg,30.0,45.0,0.0,-1.0,0.0,56.0,9.0,1.034,-0.49989840410503955,-15.0,-0.8606421248111833,-0.21245977139690292,-0.6481823534142803
240,Exp1,d11032021,8gPGn,deliberation,1.0,1.0,0.0,29.0,6.0,Clifb1.jpg,Wdekc1.jpg,36.0,36.0,1.0,-1.0,0.0,6.0,29.0,2.114,0.4706869795362514,0.0,-0.4059578150055372,-0.4059578150055372,0.0
241,Exp1,d11032021,8gPGn,deliberation,0.0,1.0,1.0,12.0,55.0,Kupkc1.jpg,Lewic1.jpg,35.0,73.0,0.0,-1.0,0.0,55.0,12.0,3.076,1.4697879249746064,-38.0,-0.439233045743696,0.8252257223063376,-1.2644587680500337
242,Exp1,d11032021,8gPGn,deliberation,0.0,1.0,2.0,35.0,34.0,Wdeka1.jpg,Monb1n.jpg,29.0,19.0,0.0,1.0,1.0,35.0,34.0,4.243,2.6817949970396375,10.0,-0.6388844301726486,-0.9716367375542364,0.3327523073815878
243,Exp1,d11032021,8gPGn,deliberation,0.0,1.0,3.0,33.0,42.0,Kupc1n.jpg,Picc1n.jpg,35.0,68.0,0.0,1.0,0.0,42.0,33.0,2.309,0.6732074414494317,-33.0,-0.439233045743696,0.6588495686155437,-1.0980826143592397
244,Exp1,d11032021,8gPGn,deliberation,1.0,1.0,4.0,38.0,11.0,Lasc1n.jpg,Wdekb1.jpg,31.0,26.0,1.0,-1.0,1.0,38.0,11.0,1.542,-0.1233730420757432,5.0,-0.5723339686963311,-0.738710122387125,0.16637615369079384
245,Exp1,d11032021,8gPGn,deliberation,1.0,1.0,5.0,20.0,21.0,Gorc1n.jpg,Lewb1n.jpg,22.0,21.0,1.0,-1.0,0.0,21.0,20.0,2.341,0.7064415685326202,1.0,-0.8718110453397601,-0.9050862760779188,0.033275230738158745
246,Exp1,d11032021,8gPGn,deliberation,1.0,1.0,6.0,43.0,16.0,Picac1.jpg,Lewa1n.jpg,68.0,63.0,1.0,1.0,1.0,43.0,16.0,2.046,0.4000644594844757,5.0,0.6588495686155437,0.49247341492474983,0.16637615369079384
247,Exp1,d11032021,8gPGn,deliberation,1.0,1.0,7.0,28.0,8.0,Krasa1.jpg,Klina1.jpg,63.0,38.0,1.0,1.0,1.0,28.0,8.0,1.715,0.05629895746774475,25.0,0.49247341492474983,-0.33940735352921964,0.8318807684539695
248,Exp1,d11032021,8gPGn,deliberation,1.0,1.0,8.0,27.0,26.0,Vinb1n.jpg,Clib1n.jpg,72.0,26.0,1.0,1.0,1.0,27.0,26.0,1.97,0.3211334076619031,46.0,0.7919504915681789,-0.738710122387125,1.5306606139553038
249,Exp1,d11032021,8gPGn,deliberation,1.0,1.0,9.0,2.0,15.0,Dekob1.jpg,Clia1n.jpg,68.0,68.0,1.0,1.0,0.0,15.0,2.0,3.04,1.4323995320060192,0.0,0.6588495686155437,0.6588495686155437,0.0
250,Exp1,d11032021,8gPGn,deliberation,0.0,1.0,10.0,57.0,3.0,Lewc1n.jpg,Fogeg1.jpg,40.0,74.0,0.0,-1.0,0.0,3.0,57.0,3.778,2.1988615878620545,-34.0,-0.2728568920529021,0.8585009530444964,-1.1313578450973985
251,Exp1,d11032021,8gPGn,deliberation,0.0,1.0,11.0,1.0,24.0,Lewia1.jpg,Dekoa1.jpg,43.0,70.0,0.0,-1.0,0.0,24.0,1.0,3.989,2.4179991133168284,-27.0,-0.17303119983842574,0.7254000300918613,-0.898431229930287
252,Exp1,d11032021,8gPGn,deliberation,0.0,1.0,12.0,41.0,54.0,Vincb1.jpg,Kupka1.jpg,29.0,71.0,0.0,-1.0,0.0,54.0,41.0,1.698,0.03864332745480072,-42.0,-0.6388844301726486,0.75867526083002,-1.3975596910026686
253,Exp1,d11032021,8gPGn,deliberation,0.0,1.0,13.0,22.0,5.0,Macb1n.jpg,Kupb1n.jpg,34.0,71.0,0.0,1.0,0.0,5.0,22.0,2.048,0.40214159242717523,-37.0,-0.4725082764818547,0.75867526083002,-1.2311835373118747
254,Exp1,d11032021,8gPGn,deliberation,1.0,1.0,14.0,53.0,14.0,Gorka1.jpg,Kupkb1.jpg,67.0,65.0,1.0,-1.0,0.0,14.0,53.0,2.531,0.903769198089052,2.0,0.6255743378773849,0.5590238764010674,0.06655046147631749
255,Exp1,d11032021,8gPGn,deliberation,0.0,1.0,15.0,10.0,40.0,Stera1.jpg,Krab1n.jpg,37.0,68.0,0.0,1.0,0.0,40.0,10.0,1.264,-0.41209452111094347,-31.0,-0.37268258426737844,0.6588495686155437,-1.0315321528829222
256,Exp1,d11032021,8gPGn,deliberation,1.0,2.0,16.0,29.0,6.0,Clifb1.jpg,Wdekc1.jpg,36.0,36.0,0.0,-1.0,0.0,6.0,29.0,1.802,0.14665424047516348,0.0,-0.4059578150055372,-0.4059578150055372,0.0
257,Exp1,d11032021,8gPGn,deliberation,0.0,2.0,17.0,1.0,24.0,Lewia1.jpg,Dekoa1.jpg,43.0,70.0,1.0,-1.0,0.0,24.0,1.0,1.683,0.023064830384556208,-27.0,-0.17303119983842574,0.7254000300918613,-0.898431229930287
258,Exp1,d11032021,8gPGn,deliberation,0.0,2.0,18.0,41.0,54.0,Vincb1.jpg,Kupka1.jpg,29.0,71.0,1.0,-1.0,0.0,54.0,41.0,0.725,-0.9718818491684,-42.0,-0.6388844301726486,0.75867526083002,-1.3975596910026686
259,Exp1,d11032021,8gPGn,deliberation,0.0,2.0,19.0,57.0,3.0,Lewc1n.jpg,Fogeg1.jpg,40.0,74.0,1.0,-1.0,0.0,3.0,57.0,1.082,-0.6011136188965781,-34.0,-0.2728568920529021,0.8585009530444964,-1.1313578450973985
260,Exp1,d11032021,8gPGn,deliberation,1.0,2.0,20.0,28.0,8.0,Krasa1.jpg,Klina1.jpg,63.0,38.0,0.0,1.0,1.0,28.0,8.0,1.099,-0.5834579888836343,25.0,0.49247341492474983,-0.33940735352921964,0.8318807684539695
261,Exp1,d11032021,8gPGn,deliberation,1.0,2.0,21.0,53.0,14.0,Gorka1.jpg,Kupkb1.jpg,67.0,65.0,0.0,-1.0,0.0,14.0,53.0,0.826,-0.8669866355620863,2.0,0.6255743378773849,0.5590238764010674,0.06655046147631749
262,Exp1,d11032021,8gPGn,deliberation,1.0,2.0,22.0,38.0,11.0,Lasc1n.jpg,Wdekb1.jpg,31.0,26.0,0.0,-1.0,1.0,38.0,11.0,0.709,-0.9884989127099943,5.0,-0.5723339686963311,-0.738710122387125,0.16637615369079384
263,Exp1,d11032021,8gPGn,deliberation,0.0,2.0,23.0,22.0,5.0,Macb1n.jpg,Kupb1n.jpg,34.0,71.0,1.0,1.0,0.0,5.0,22.0,0.776,-0.9189149591295683,-37.0,-0.4725082764818547,0.75867526083002,-1.2311835373118747
264,Exp1,d11032021,8gPGn,deliberation,1.0,2.0,24.0,27.0,26.0,Vinb1n.jpg,Clib1n.jpg,72.0,26.0,0.0,1.0,1.0,27.0,26.0,3.641,2.0565779812871536,46.0,0.7919504915681789,-0.738710122387125,1.5306606139553038
265,Exp1,d11032021,8gPGn,deliberation,1.0,2.0,25.0,43.0,16.0,Picac1.jpg,Lewa1n.jpg,68.0,63.0,0.0,1.0,1.0,43.0,16.0,0.939,-0.7496286242995769,5.0,0.6588495686155437,0.49247341492474983,0.16637615369079384
266,Exp1,d11032021,8gPGn,deliberation,0.0,2.0,26.0,35.0,34.0,Wdeka1.jpg,Monb1n.jpg,29.0,19.0,1.0,1.0,1.0,35.0,34.0,2.319,0.6835931061629279,10.0,-0.6388844301726486,-0.9716367375542364,0.3327523073815878
267,Exp1,d11032021,8gPGn,deliberation,0.0,2.0,27.0,12.0,55.0,Kupkc1.jpg,Lewic1.jpg,35.0,73.0,1.0,-1.0,0.0,55.0,12.0,1.221,-0.45675287937897796,-38.0,-0.439233045743696,0.8252257223063376,-1.2644587680500337
268,Exp1,d11032021,8gPGn,deliberation,1.0,2.0,28.0,2.0,15.0,Dekob1.jpg,Clia1n.jpg,68.0,68.0,0.0,1.0,0.0,15.0,2.0,3.111,1.506137751471844,0.0,0.6588495686155437,0.6588495686155437,0.0
269,Exp1,d11032021,8gPGn,deliberation,1.0,2.0,29.0,20.0,21.0,Gorc1n.jpg,Lewb1n.jpg,22.0,21.0,0.0,-1.0,0.0,21.0,20.0,1.17,-0.5097197694178098,1.0,-0.8718110453397601,-0.9050862760779188,0.033275230738158745
270,Exp1,d11032021,8gPGn,deliberation,0.0,2.0,30.0,10.0,40.0,Stera1.jpg,Krab1n.jpg,37.0,68.0,1.0,1.0,0.0,40.0,10.0,1.608,-0.05482765496666683,-31.0,-0.37268258426737844,0.6588495686155437,-1.0315321528829222
271,Exp1,d11032021,8gPGn,deliberation,0.0,2.0,31.0,33.0,42.0,Kupc1n.jpg,Picc1n.jpg,35.0,68.0,1.0,1.0,0.0,42.0,33.0,2.278,0.6410118808375926,-33.0,-0.439233045743696,0.6588495686155437,-1.0980826143592397
272,Exp1,d11032021,8gPGn,deliberation,0.0,3.0,32.0,41.0,54.0,Vincb1.jpg,Kupka1.jpg,29.0,71.0,0.0,-1.0,0.0,54.0,41.0,1.468,-0.20022696095561673,-42.0,-0.6388844301726486,0.75867526083002,-1.3975596910026686
273,Exp1,d11032021,8gPGn,deliberation,1.0,3.0,33.0,38.0,11.0,Lasc1n.jpg,Wdekb1.jpg,31.0,26.0,0.0,-1.0,1.0,38.0,11.0,0.844,-0.8482924390777928,5.0,-0.5723339686963311,-0.738710122387125,0.16637615369079384
274,Exp1,d11032021,8gPGn,deliberation,1.0,3.0,34.0,27.0,26.0,Vinb1n.jpg,Clib1n.jpg,72.0,26.0,0.0,1.0,1.0,27.0,26.0,1.046,-0.6385020118651652,46.0,0.7919504915681789,-0.738710122387125,1.5306606139553038
275,Exp1,d11032021,8gPGn,deliberation,1.0,3.0,35.0,29.0,6.0,Clifb1.jpg,Wdekc1.jpg,36.0,36.0,0.0,-1.0,0.0,6.0,29.0,0.819,-0.8742566008615339,0.0,-0.4059578150055372,-0.4059578150055372,0.0
276,Exp1,d11032021,8gPGn,deliberation,1.0,3.0,36.0,28.0,8.0,Krasa1.jpg,Klina1.jpg,63.0,38.0,0.0,1.0,1.0,28.0,8.0,0.965,-0.7226258960444862,25.0,0.49247341492474983,-0.33940735352921964,0.8318807684539695
277,Exp1,d11032021,8gPGn,deliberation,1.0,3.0,37.0,2.0,15.0,Dekob1.jpg,Clia1n.jpg,68.0,68.0,0.0,1.0,0.0,15.0,2.0,0.875,-0.8160968784659539,0.0,0.6588495686155437,0.6588495686155437,0.0
278,Exp1,d11032021,8gPGn,deliberation,0.0,3.0,38.0,57.0,3.0,Lewc1n.jpg,Fogeg1.jpg,40.0,74.0,0.0,-1.0,0.0,3.0,57.0,0.726,-0.9708432826970504,-34.0,-0.2728568920529021,0.8585009530444964,-1.1313578450973985
279,Exp1,d11032021,8gPGn,deliberation,0.0,3.0,39.0,10.0,40.0,Stera1.jpg,Krab1n.jpg,37.0,68.0,0.0,1.0,0.0,40.0,10.0,0.87,-0.8212897108227021,-31.0,-0.37268258426737844,0.6588495686155437,-1.0315321528829222
280,Exp1,d11032021,8gPGn,deliberation,0.0,3.0,40.0,1.0,24.0,Lewia1.jpg,Dekoa1.jpg,43.0,70.0,0.0,-1.0,0.0,24.0,1.0,0.804,-0.8898350979317784,-27.0,-0.17303119983842574,0.7254000300918613,-0.898431229930287
281,Exp1,d11032021,8gPGn,deliberation,0.0,3.0,41.0,33.0,42.0,Kupc1n.jpg,Picc1n.jpg,35.0,68.0,0.0,1.0,0.0,42.0,33.0,0.681,-1.0175787739077842,-33.0,-0.439233045743696,0.6588495686155437,-1.0980826143592397
282,Exp1,d11032021,8gPGn,deliberation,0.0,3.0,42.0,12.0,55.0,Kupkc1.jpg,Lewic1.jpg,35.0,73.0,0.0,-1.0,0.0,55.0,12.0,0.873,-0.8181740114086532,-38.0,-0.439233045743696,0.8252257223063376,-1.2644587680500337
283,Exp1,d11032021,8gPGn,deliberation,1.0,3.0,43.0,53.0,14.0,Gorka1.jpg,Kupkb1.jpg,67.0,65.0,0.0,-1.0,0.0,14.0,53.0,0.93,-0.7589757225417236,2.0,0.6255743378773849,0.5590238764010674,0.06655046147631749
284,Exp1,d11032021,8gPGn,deliberation,1.0,3.0,44.0,20.0,21.0,Gorc1n.jpg,Lewb1n.jpg,22.0,21.0,0.0,-1.0,0.0,21.0,20.0,0.922,-0.7672842543125207,1.0,-0.8718110453397601,-0.9050862760779188,0.033275230738158745
285,Exp1,d11032021,8gPGn,deliberation,0.0,3.0,45.0,22.0,5.0,Macb1n.jpg,Kupb1n.jpg,34.0,71.0,0.0,1.0,0.0,5.0,22.0,1.285,-0.3902846252126011,-37.0,-0.4725082764818547,0.75867526083002,-1.2311835373118747
286,Exp1,d11032021,8gPGn,deliberation,1.0,3.0,46.0,43.0,16.0,Picac1.jpg,Lewa1n.jpg,68.0,63.0,0.0,1.0,1.0,43.0,16.0,0.817,-0.8763337338042331,5.0,0.6588495686155437,0.49247341492474983,0.16637615369079384
287,Exp1,d11032021,8gPGn,deliberation,0.0,3.0,47.0,35.0,34.0,Wdeka1.jpg,Monb1n.jpg,29.0,19.0,0.0,1.0,1.0,35.0,34.0,1.1,-0.5824194224122845,10.0,-0.6388844301726486,-0.9716367375542364,0.3327523073815878
288,Exp1,d11042021,339Ys,deliberation,1.0,1.0,0.0,36.0,22.0,Gorkf1.jpg,Macb1n.jpg,18.0,83.0,1.0,-1.0,0.0,22.0,36.0,2.615,-0.21506810619131778,-65.0,-1.2324052287898337,0.838417861378349,-2.0708230901681826
289,Exp1,d11042021,339Ys,deliberation,1.0,1.0,1.0,9.0,46.0,Lassc1.jpg,Deka1n.jpg,33.0,37.0,1.0,1.0,0.0,46.0,9.0,2.788,-0.0881997710479847,-4.0,-0.7545229772125609,-0.6270877101252881,-0.12743526708727282
290,Exp1,d11042021,339Ys,deliberation,1.0,1.0,2.0,39.0,7.0,Dekb1n.jpg,Pica1n.jpg,84.0,81.0,1.0,-1.0,0.0,7.0,39.0,4.434,1.1188827702579505,3.0,0.8702766781501672,0.7747002278347126,0.09557645031545459
291,Exp1,d11042021,339Ys,deliberation,1.0,1.0,3.0,54.0,56.0,Kupka1.jpg,Luisc1.jpg,67.0,62.0,1.0,1.0,1.0,54.0,56.0,4.708,1.319818746149704,5.0,0.32867679302925784,0.16938270917016685,0.159294083859091
292,Exp1,d11042021,339Ys,deliberation,0.0,1.0,4.0,53.0,48.0,Gorka1.jpg,Picb1n.jpg,90.0,76.0,0.0,1.0,1.0,53.0,48.0,4.676,1.2963517708630756,14.0,1.0614295787810764,0.6154061439756217,0.4460234348054547
293,Exp1,d11042021,339Ys,deliberation,0.0,1.0,5.0,45.0,58.0,Klia1n.jpg,Mackc1.jpg,61.0,58.0,0.0,1.0,1.0,45.0,58.0,4.764,1.360885952901303,3.0,0.13752389239834867,0.04194744208289407,0.0955764503154546
294,Exp1,d11042021,339Ys,deliberation,0.0,1.0,6.0,0.0,27.0,Gorkc1.jpg,Vinb1n.jpg,31.0,90.0,0.0,1.0,0.0,27.0,0.0,3.868,0.703810644875715,-59.0,-0.8182406107561973,1.0614295787810764,-1.8796701895372736
295,Exp1,d11042021,339Ys,deliberation,0.0,1.0,7.0,29.0,4.0,Clifb1.jpg,Mackb1.jpg,21.0,72.0,0.0,-1.0,1.0,29.0,4.0,4.837,1.4144199902739232,-51.0,-1.1368287784743791,0.48797087688834884,-1.624799655362728
296,Exp1,d11042021,339Ys,deliberation,0.0,1.0,8.0,12.0,17.0,Kupkc1.jpg,Picab1.jpg,22.0,37.0,0.0,-1.0,1.0,12.0,17.0,4.344,1.052881902264309,-15.0,-1.104969961702561,-0.6270877101252881,-0.47788225157727293
297,Exp1,d11042021,339Ys,deliberation,1.0,1.0,9.0,47.0,35.0,Kupkd1.jpg,Wdeka1.jpg,78.0,59.0,1.0,1.0,1.0,47.0,35.0,4.508,1.173150150608278,19.0,0.679123777519258,0.07380625885471226,0.6053175186645458
298,Exp1,d11042021,339Ys,deliberation,0.0,1.0,10.0,42.0,32.0,Picc1n.jpg,Macka1.jpg,36.0,32.0,0.0,-1.0,0.0,32.0,42.0,4.343,1.0521485592866016,4.0,-0.6589465268971063,-0.786381793984379,0.1274352670872727
299,Exp1,d11042021,339Ys,deliberation,1.0,1.0,11.0,1.0,8.0,Lewia1.jpg,Klina1.jpg,87.0,65.0,1.0,-1.0,1.0,1.0,8.0,3.032,0.09073591551255503,22.0,0.9658531284656218,0.26495915948562143,0.7008939689800003
300,Exp1,d11042021,339Ys,deliberation,0.0,1.0,12.0,10.0,59.0,Stera1.jpg,Kraa1n.jpg,39.0,68.0,0.0,-1.0,0.0,59.0,10.0,3.618,0.5204749004489327,-29.0,-0.5633700765816517,0.360535609801076,-0.9239056863827277
301,Exp1,d11042021,339Ys,deliberation,1.0,1.0,13.0,55.0,16.0,Lewic1.jpg,Lewa1n.jpg,78.0,63.0,1.0,1.0,1.0,55.0,16.0,4.977,1.5170880071529218,15.0,0.679123777519258,0.20124152594198505,0.47788225157727293
302,Exp1,d11042021,339Ys,deliberation,0.0,1.0,14.0,43.0,44.0,Picac1.jpg,Lassf1.jpg,63.0,72.0,0.0,1.0,1.0,43.0,44.0,3.309,0.2938719203374299,-9.0,0.20124152594198505,0.48797087688834884,-0.28672935094636376
303,Exp1,d11042021,339Ys,deliberation,1.0,1.0,15.0,57.0,13.0,Lewc1n.jpg,Picak1.jpg,24.0,83.0,1.0,-1.0,0.0,13.0,57.0,4.413,1.1034825677261009,-59.0,-1.0412523281589245,0.838417861378349,-1.8796701895372734
304,Exp1,d11042021,339Ys,deliberation,0.0,2.0,16.0,12.0,17.0,Kupkc1.jpg,Picab1.jpg,22.0,37.0,1.0,-1.0,1.0,12.0,17.0,1.436,-1.0796794769080234,-15.0,-1.104969961702561,-0.6270877101252881,-0.47788225157727293
305,Exp1,d11042021,339Ys,deliberation,0.0,2.0,17.0,10.0,59.0,Stera1.jpg,Kraa1n.jpg,39.0,68.0,1.0,-1.0,0.0,59.0,10.0,3.471,0.41267348272598486,-29.0,-0.5633700765816517,0.360535609801076,-0.9239056863827277
306,Exp1,d11042021,339Ys,deliberation,0.0,2.0,18.0,45.0,58.0,Klia1n.jpg,Mackc1.jpg,61.0,58.0,1.0,1.0,0.0,58.0,45.0,6.088,2.3318320553855423,3.0,0.13752389239834867,0.04194744208289407,0.0955764503154546
307,Exp1,d11042021,339Ys,deliberation,1.0,2.0,19.0,9.0,46.0,Lassc1.jpg,Deka1n.jpg,33.0,37.0,0.0,1.0,0.0,46.0,9.0,3.757,0.6224095743502238,-4.0,-0.7545229772125609,-0.6270877101252881,-0.12743526708727282
308,Exp1,d11042021,339Ys,deliberation,1.0,2.0,20.0,54.0,56.0,Kupka1.jpg,Luisc1.jpg,67.0,62.0,0.0,1.0,1.0,54.0,56.0,2.386,-0.3830036480862504,5.0,0.32867679302925784,0.16938270917016685,0.159294083859091
309,Exp1,d11042021,339Ys,deliberation,0.0,2.0,21.0,43.0,44.0,Picac1.jpg,Lassf1.jpg,63.0,72.0,1.0,1.0,1.0,43.0,44.0,3.139,0.16920361412721768,-9.0,0.20124152594198505,0.48797087688834884,-0.28672935094636376
310,Exp1,d11042021,339Ys,deliberation,0.0,2.0,22.0,29.0,4.0,Clifb1.jpg,Mackb1.jpg,21.0,72.0,1.0,-1.0,1.0,29.0,4.0,2.533,-0.2752022303633026,-51.0,-1.1368287784743791,0.48797087688834884,-1.624799655362728
311,Exp1,d11042021,339Ys,deliberation,1.0,2.0,23.0,36.0,22.0,Gorkf1.jpg,Macb1n.jpg,18.0,83.0,0.0,-1.0,0.0,22.0,36.0,2.744,-0.12046686206709808,-65.0,-1.2324052287898337,0.838417861378349,-2.0708230901681826
312,Exp1,d11042021,339Ys,deliberation,1.0,2.0,24.0,47.0,35.0,Kupkd1.jpg,Wdeka1.jpg,78.0,59.0,0.0,1.0,1.0,47.0,35.0,1.795,-0.816409347911164,19.0,0.679123777519258,0.07380625885471226,0.6053175186645458
313,Exp1,d11042021,339Ys,deliberation,0.0,2.0,25.0,53.0,48.0,Gorka1.jpg,Picb1n.jpg,90.0,76.0,1.0,1.0,1.0,53.0,48.0,4.052,0.8387457527738266,14.0,1.0614295787810764,0.6154061439756217,0.4460234348054547
314,Exp1,d11042021,339Ys,deliberation,1.0,2.0,26.0,57.0,13.0,Lewc1n.jpg,Picak1.jpg,24.0,83.0,0.0,-1.0,0.0,13.0,57.0,2.168,-0.5428724172264047,-59.0,-1.0412523281589245,0.838417861378349,-1.8796701895372734
315,Exp1,d11042021,339Ys,deliberation,0.0,2.0,27.0,42.0,32.0,Picc1n.jpg,Macka1.jpg,36.0,32.0,1.0,-1.0,0.0,32.0,42.0,2.005,-0.6624073225926669,4.0,-0.6589465268971063,-0.786381793984379,0.1274352670872727
316,Exp1,d11042021,339Ys,deliberation,1.0,2.0,28.0,39.0,7.0,Dekb1n.jpg,Pica1n.jpg,84.0,81.0,0.0,-1.0,0.0,7.0,39.0,5.766,2.0956956165638467,3.0,0.8702766781501672,0.7747002278347126,0.09557645031545459
317,Exp1,d11042021,339Ys,deliberation,0.0,2.0,29.0,0.0,27.0,Gorkc1.jpg,Vinb1n.jpg,31.0,90.0,1.0,1.0,0.0,27.0,0.0,1.892,-0.7452750790735725,-59.0,-0.8182406107561973,1.0614295787810764,-1.8796701895372736
318,Exp1,d11042021,339Ys,deliberation,1.0,2.0,30.0,55.0,16.0,Lewic1.jpg,Lewa1n.jpg,78.0,63.0,0.0,1.0,1.0,55.0,16.0,2.147,-0.5582726197582546,15.0,0.679123777519258,0.20124152594198505,0.47788225157727293
319,Exp1,d11042021,339Ys,deliberation,1.0,2.0,31.0,1.0,8.0,Lewia1.jpg,Klina1.jpg,87.0,65.0,0.0,-1.0,1.0,1.0,8.0,1.905,-0.7357416203633798,22.0,0.9658531284656218,0.26495915948562143,0.7008939689800003
320,Exp1,d11042021,339Ys,deliberation,0.0,3.0,32.0,10.0,59.0,Stera1.jpg,Kraa1n.jpg,39.0,68.0,0.0,-1.0,0.0,59.0,10.0,2.006,-0.6616739796149599,-29.0,-0.5633700765816517,0.360535609801076,-0.9239056863827277
321,Exp1,d11042021,339Ys,deliberation,1.0,3.0,33.0,57.0,13.0,Lewc1n.jpg,Picak1.jpg,24.0,83.0,0.0,-1.0,0.0,13.0,57.0,1.659,-0.9161439928793336,-59.0,-1.0412523281589245,0.838417861378349,-1.8796701895372734
322,Exp1,d11042021,339Ys,deliberation,1.0,3.0,34.0,9.0,46.0,Lassc1.jpg,Deka1n.jpg,33.0,37.0,0.0,1.0,0.0,46.0,9.0,2.051,-0.6286735456181387,-4.0,-0.7545229772125609,-0.6270877101252881,-0.12743526708727282
323,Exp1,d11042021,339Ys,deliberation,0.0,3.0,35.0,53.0,48.0,Gorka1.jpg,Picb1n.jpg,90.0,76.0,0.0,1.0,1.0,53.0,48.0,1.816,-0.8010091453793142,14.0,1.0614295787810764,0.6154061439756217,0.4460234348054547
324,Exp1,d11042021,339Ys,deliberation,0.0,3.0,36.0,29.0,4.0,Clifb1.jpg,Mackb1.jpg,21.0,72.0,0.0,-1.0,1.0,29.0,4.0,1.555,-0.9924116625608751,-51.0,-1.1368287784743791,0.48797087688834884,-1.624799655362728
325,Exp1,d11042021,339Ys,deliberation,0.0,3.0,37.0,42.0,32.0,Picc1n.jpg,Macka1.jpg,36.0,32.0,0.0,-1.0,0.0,32.0,42.0,2.206,-0.5150053840735338,4.0,-0.6589465268971063,-0.786381793984379,0.1274352670872727
326,Exp1,d11042021,339Ys,deliberation,1.0,3.0,38.0,47.0,35.0,Kupkd1.jpg,Wdeka1.jpg,78.0,59.0,0.0,1.0,1.0,47.0,35.0,1.353,-1.1405469440577152,19.0,0.679123777519258,0.07380625885471226,0.6053175186645458
327,Exp1,d11042021,339Ys,deliberation,0.0,3.0,39.0,0.0,27.0,Gorkc1.jpg,Vinb1n.jpg,31.0,90.0,0.0,1.0,0.0,27.0,0.0,0.965,-1.4250840194080814,-59.0,-0.8182406107561973,1.0614295787810764,-1.8796701895372736
328,Exp1,d11042021,339Ys,deliberation,0.0,3.0,40.0,43.0,44.0,Picac1.jpg,Lassf1.jpg,63.0,72.0,0.0,1.0,1.0,43.0,44.0,1.249,-1.2168146137392566,-9.0,0.20124152594198505,0.48797087688834884,-0.28672935094636376
329,Exp1,d11042021,339Ys,deliberation,0.0,3.0,41.0,45.0,58.0,Klia1n.jpg,Mackc1.jpg,61.0,58.0,0.0,1.0,0.0,58.0,45.0,2.18,-0.534072301493919,3.0,0.13752389239834867,0.04194744208289407,0.0955764503154546
330,Exp1,d11042021,339Ys,deliberation,0.0,3.0,42.0,12.0,17.0,Kupkc1.jpg,Picab1.jpg,22.0,37.0,0.0,-1.0,1.0,12.0,17.0,2.183,-0.5318722725607979,-15.0,-1.104969961702561,-0.6270877101252881,-0.47788225157727293
331,Exp1,d11042021,339Ys,deliberation,1.0,3.0,43.0,39.0,7.0,Dekb1n.jpg,Pica1n.jpg,84.0,81.0,0.0,-1.0,0.0,7.0,39.0,1.542,-1.0019451212710677,3.0,0.8702766781501672,0.7747002278347126,0.09557645031545459
332,Exp1,d11042021,339Ys,deliberation,1.0,3.0,44.0,1.0,8.0,Lewia1.jpg,Klina1.jpg,87.0,65.0,0.0,-1.0,1.0,1.0,8.0,0.939,-1.4441509368284666,22.0,0.9658531284656218,0.26495915948562143,0.7008939689800003
333,Exp1,d11042021,339Ys,deliberation,1.0,3.0,45.0,54.0,56.0,Kupka1.jpg,Luisc1.jpg,67.0,62.0,0.0,1.0,1.0,54.0,56.0,1.222,-1.236614874137349,5.0,0.32867679302925784,0.16938270917016685,0.159294083859091
334,Exp1,d11042021,339Ys,deliberation,1.0,3.0,46.0,36.0,22.0,Gorkf1.jpg,Macb1n.jpg,18.0,83.0,0.0,-1.0,0.0,22.0,36.0,2.944,0.026201733474327586,-65.0,-1.2324052287898337,0.838417861378349,-2.0708230901681826
335,Exp1,d11042021,339Ys,deliberation,1.0,3.0,47.0,55.0,16.0,Lewic1.jpg,Lewa1n.jpg,78.0,63.0,0.0,1.0,1.0,55.0,16.0,1.209,-1.2461483328475418,15.0,0.679123777519258,0.20124152594198505,0.47788225157727293
336,Exp1,d11032021,JY6WO,deliberation,1.0,1.0,0.0,9.0,19.0,Lassc1.jpg,Macc1n.jpg,16.0,25.0,1.0,-1.0,0.0,19.0,9.0,1.272,0.22352040648340168,-9.0,-0.8190506617176558,-0.37319647086328667,-0.44585419085436917
337,Exp1,d11032021,JY6WO,deliberation,1.0,1.0,1.0,12.0,31.0,Kupkc1.jpg,Maca1n.jpg,23.0,26.0,1.0,1.0,0.0,31.0,12.0,2.518,2.587918791867073,-3.0,-0.4722751799420354,-0.3236571163239123,-0.14861806361812308
338,Exp1,d11032021,JY6WO,deliberation,0.0,1.0,2.0,35.0,27.0,Wdeka1.jpg,Vinb1n.jpg,32.0,24.0,0.0,-1.0,0.0,27.0,35.0,1.677,0.9920447612830704,8.0,-0.026420989087666227,-0.422735825402661,0.3963148363149948
339,Exp1,d11032021,JY6WO,deliberation,1.0,1.0,3.0,6.0,22.0,Wdekc1.jpg,Macb1n.jpg,21.0,27.0,1.0,1.0,0.0,22.0,6.0,2.532,2.6144850658601486,-6.0,-0.5713538890207841,-0.274117761784538,-0.2972361272362461
340,Exp1,d11032021,JY6WO,deliberation,0.0,1.0,4.0,28.0,51.0,Krasa1.jpg,Gora1n.jpg,26.0,18.0,0.0,-1.0,1.0,28.0,51.0,1.508,0.6713518823666653,8.0,-0.3236571163239123,-0.7199719526389071,0.3963148363149948
341,Exp1,d11032021,JY6WO,deliberation,1.0,1.0,5.0,13.0,46.0,Picak1.jpg,Deka1n.jpg,26.0,21.0,1.0,1.0,1.0,13.0,46.0,1.291,0.2595746354740033,5.0,-0.3236571163239123,-0.5713538890207841,0.2476967726968718
342,Exp1,d11032021,JY6WO,deliberation,1.0,1.0,6.0,54.0,16.0,Kupka1.jpg,Lewa1n.jpg,18.0,29.0,1.0,-1.0,1.0,54.0,16.0,1.552,0.754845886344901,-11.0,-0.7199719526389071,-0.1750390527057893,-0.5449328999331178
343,Exp1,d11032021,JY6WO,deliberation,0.0,1.0,7.0,45.0,1.0,Klia1n.jpg,Lewia1.jpg,21.0,33.0,0.0,1.0,0.0,1.0,45.0,1.855,1.3298159591950234,-12.0,-0.5713538890207841,0.023118365451708124,-0.5944722544724922
344,Exp1,d11032021,JY6WO,deliberation,1.0,1.0,8.0,36.0,26.0,Gorkf1.jpg,Clib1n.jpg,26.0,25.0,1.0,-1.0,1.0,36.0,26.0,1.32,0.3146047744596588,1.0,-0.3236571163239123,-0.37319647086328667,0.04953935453937436
345,Exp1,d11032021,JY6WO,deliberation,0.0,1.0,9.0,59.0,58.0,Kraa1n.jpg,Mackc1.jpg,50.0,35.0,0.0,-1.0,0.0,58.0,59.0,1.592,0.8307495263251152,15.0,0.8652873926210721,0.12219707453045682,0.7430903180906153
346,Exp1,d11032021,JY6WO,deliberation,1.0,1.0,10.0,53.0,40.0,Gorka1.jpg,Krab1n.jpg,30.0,61.0,1.0,1.0,0.0,40.0,53.0,1.211,0.10776735551357518,-31.0,-0.12549969816641493,1.41022029255419,-1.535719990720605
347,Exp1,d11032021,JY6WO,deliberation,0.0,1.0,11.0,32.0,2.0,Macka1.jpg,Dekob1.jpg,23.0,28.0,0.0,1.0,1.0,32.0,2.0,1.478,0.6144241523815047,-5.0,-0.4722751799420354,-0.22457840724516362,-0.24769677269687176
348,Exp1,d11032021,JY6WO,deliberation,0.0,1.0,12.0,30.0,44.0,Lasse1.jpg,Lassf1.jpg,24.0,18.0,0.0,1.0,0.0,44.0,30.0,1.389,0.44553855342552817,6.0,-0.422735825402661,-0.7199719526389071,0.2972361272362461
349,Exp1,d11032021,JY6WO,deliberation,0.0,1.0,13.0,52.0,55.0,Picaa1.jpg,Lewic1.jpg,37.0,26.0,0.0,-1.0,1.0,52.0,55.0,1.669,0.9768640332870275,11.0,0.22127578360920552,-0.3236571163239123,0.5449328999331178
350,Exp1,d11032021,JY6WO,deliberation,1.0,1.0,14.0,41.0,42.0,Vincb1.jpg,Picc1n.jpg,57.0,29.0,1.0,-1.0,0.0,42.0,41.0,1.098,-0.10666042743052988,28.0,1.2120628743966926,-0.1750390527057893,1.3871019271024818
351,Exp1,d11032021,JY6WO,deliberation,0.0,1.0,15.0,5.0,7.0,Kupb1n.jpg,Pica1n.jpg,32.0,50.0,0.0,1.0,0.0,7.0,5.0,1.033,-0.23000384239837823,-18.0,-0.026420989087666227,0.8652873926210721,-0.8917083817087383
352,Exp1,d11032021,JY6WO,deliberation,0.0,2.0,16.0,45.0,1.0,Klia1n.jpg,Lewia1.jpg,21.0,33.0,1.0,1.0,1.0,45.0,1.0,0.863,-0.5525943123142883,-12.0,-0.5713538890207841,0.023118365451708124,-0.5944722544724922
353,Exp1,d11032021,JY6WO,deliberation,1.0,2.0,17.0,41.0,42.0,Vincb1.jpg,Picc1n.jpg,57.0,29.0,0.0,-1.0,1.0,41.0,42.0,2.617,2.7757803008181035,28.0,1.2120628743966926,-0.1750390527057893,1.3871019271024818
354,Exp1,d11032021,JY6WO,deliberation,0.0,2.0,18.0,5.0,7.0,Kupb1n.jpg,Pica1n.jpg,32.0,50.0,1.0,1.0,0.0,7.0,5.0,2.241,2.0622860850040903,-18.0,-0.026420989087666227,0.8652873926210721,-0.8917083817087383
355,Exp1,d11032021,JY6WO,deliberation,0.0,2.0,19.0,59.0,58.0,Kraa1n.jpg,Mackc1.jpg,50.0,35.0,1.0,-1.0,0.0,58.0,59.0,1.272,0.22352040648340168,15.0,0.8652873926210721,0.12219707453045682,0.7430903180906153
356,Exp1,d11032021,JY6WO,deliberation,1.0,2.0,20.0,36.0,26.0,Gorkf1.jpg,Clib1n.jpg,26.0,25.0,0.0,-1.0,1.0,36.0,26.0,0.737,-0.7916907782519631,1.0,-0.3236571163239123,-0.37319647086328667,0.04953935453937436
357,Exp1,d11032021,JY6WO,deliberation,1.0,2.0,21.0,13.0,46.0,Picak1.jpg,Deka1n.jpg,26.0,21.0,0.0,1.0,1.0,13.0,46.0,0.91,-0.46340753533753665,5.0,-0.3236571163239123,-0.5713538890207841,0.2476967726968718
358,Exp1,d11032021,JY6WO,deliberation,0.0,2.0,22.0,52.0,55.0,Picaa1.jpg,Lewic1.jpg,37.0,26.0,1.0,-1.0,1.0,52.0,55.0,1.009,-0.27554602638650677,11.0,0.22127578360920552,-0.3236571163239123,0.5449328999331178
359,Exp1,d11032021,JY6WO,deliberation,0.0,2.0,23.0,35.0,27.0,Wdeka1.jpg,Vinb1n.jpg,32.0,24.0,1.0,-1.0,0.0,27.0,35.0,0.92,-0.4444316253424831,8.0,-0.026420989087666227,-0.422735825402661,0.3963148363149948
360,Exp1,d11032021,JY6WO,deliberation,1.0,2.0,24.0,12.0,31.0,Kupkc1.jpg,Maca1n.jpg,23.0,26.0,0.0,1.0,0.0,31.0,12.0,1.262,0.20454449648834813,-3.0,-0.4722751799420354,-0.3236571163239123,-0.14861806361812308
361,Exp1,d11032021,JY6WO,deliberation,0.0,2.0,25.0,32.0,2.0,Macka1.jpg,Dekob1.jpg,23.0,28.0,1.0,1.0,1.0,32.0,2.0,0.691,-0.8789799642292094,-5.0,-0.4722751799420354,-0.22457840724516362,-0.24769677269687176
362,Exp1,d11032021,JY6WO,deliberation,0.0,2.0,26.0,30.0,44.0,Lasse1.jpg,Lassf1.jpg,24.0,18.0,1.0,1.0,0.0,44.0,30.0,1.421,0.5062614654096995,6.0,-0.422735825402661,-0.7199719526389071,0.2972361272362461
363,Exp1,d11032021,JY6WO,deliberation,0.0,2.0,27.0,28.0,51.0,Krasa1.jpg,Gora1n.jpg,26.0,18.0,1.0,-1.0,1.0,28.0,51.0,0.971,-0.3476544843677101,8.0,-0.3236571163239123,-0.7199719526389071,0.3963148363149948
364,Exp1,d11032021,JY6WO,deliberation,1.0,2.0,28.0,9.0,19.0,Lassc1.jpg,Macc1n.jpg,16.0,25.0,0.0,-1.0,0.0,19.0,9.0,1.185,0.05842998952643591,-9.0,-0.8190506617176558,-0.37319647086328667,-0.44585419085436917
365,Exp1,d11032021,JY6WO,deliberation,1.0,2.0,29.0,54.0,16.0,Kupka1.jpg,Lewa1n.jpg,18.0,29.0,0.0,-1.0,1.0,54.0,16.0,0.689,-0.8827751462282202,-11.0,-0.7199719526389071,-0.1750390527057893,-0.5449328999331178
366,Exp1,d11032021,JY6WO,deliberation,1.0,2.0,30.0,53.0,40.0,Gorka1.jpg,Krab1n.jpg,30.0,61.0,0.0,1.0,0.0,40.0,53.0,0.952,-0.3837087133583119,-31.0,-0.12549969816641493,1.41022029255419,-1.535719990720605
367,Exp1,d11032021,JY6WO,deliberation,1.0,2.0,31.0,6.0,22.0,Wdekc1.jpg,Macb1n.jpg,21.0,27.0,0.0,1.0,0.0,22.0,6.0,0.881,-0.518437674323192,-6.0,-0.5713538890207841,-0.274117761784538,-0.2972361272362461
368,Exp1,d11032021,JY6WO,deliberation,1.0,3.0,32.0,53.0,40.0,Gorka1.jpg,Krab1n.jpg,30.0,61.0,0.0,1.0,0.0,40.0,53.0,0.784,-0.7025040012752113,-31.0,-0.12549969816641493,1.41022029255419,-1.535719990720605
369,Exp1,d11032021,JY6WO,deliberation,0.0,3.0,33.0,30.0,44.0,Lasse1.jpg,Lassf1.jpg,24.0,18.0,0.0,1.0,0.0,44.0,30.0,0.651,-0.9548836042094235,6.0,-0.422735825402661,-0.7199719526389071,0.2972361272362461
370,Exp1,d11032021,JY6WO,deliberation,0.0,3.0,34.0,59.0,58.0,Kraa1n.jpg,Mackc1.jpg,50.0,35.0,0.0,-1.0,0.0,58.0,59.0,0.742,-0.7822028232544362,15.0,0.8652873926210721,0.12219707453045682,0.7430903180906153
371,Exp1,d11032021,JY6WO,deliberation,0.0,3.0,35.0,28.0,51.0,Krasa1.jpg,Gora1n.jpg,26.0,18.0,0.0,-1.0,1.0,28.0,51.0,0.621,-1.0118113341945842,8.0,-0.3236571163239123,-0.7199719526389071,0.3963148363149948
372,Exp1,d11032021,JY6WO,deliberation,0.0,3.0,36.0,45.0,1.0,Klia1n.jpg,Lewia1.jpg,21.0,33.0,0.0,1.0,1.0,45.0,1.0,0.82,-0.6341907252930187,-12.0,-0.5713538890207841,0.023118365451708124,-0.5944722544724922
373,Exp1,d11032021,JY6WO,deliberation,0.0,3.0,37.0,32.0,2.0,Macka1.jpg,Dekob1.jpg,23.0,28.0,0.0,1.0,1.0,32.0,2.0,0.609,-1.0345824261886485,-5.0,-0.4722751799420354,-0.22457840724516362,-0.24769677269687176
374,Exp1,d11032021,JY6WO,deliberation,1.0,3.0,38.0,9.0,19.0,Lassc1.jpg,Macc1n.jpg,16.0,25.0,0.0,-1.0,0.0,19.0,9.0,0.591,-1.068739064179745,-9.0,-0.8190506617176558,-0.37319647086328667,-0.44585419085436917
375,Exp1,d11032021,JY6WO,deliberation,1.0,3.0,39.0,6.0,22.0,Wdekc1.jpg,Macb1n.jpg,21.0,27.0,0.0,1.0,0.0,22.0,6.0,0.8,-0.6721425452831257,-6.0,-0.5713538890207841,-0.274117761784538,-0.2972361272362461
376,Exp1,d11032021,JY6WO,deliberation,1.0,3.0,40.0,54.0,16.0,Kupka1.jpg,Lewa1n.jpg,18.0,29.0,0.0,-1.0,1.0,54.0,16.0,0.579,-1.0915101561738092,-11.0,-0.7199719526389071,-0.1750390527057893,-0.5449328999331178
377,Exp1,d11032021,JY6WO,deliberation,1.0,3.0,41.0,41.0,42.0,Vincb1.jpg,Picc1n.jpg,57.0,29.0,0.0,-1.0,1.0,41.0,42.0,0.87,-0.5393111753177509,28.0,1.2120628743966926,-0.1750390527057893,1.3871019271024818
378,Exp1,d11032021,JY6WO,deliberation,0.0,3.0,42.0,35.0,27.0,Wdeka1.jpg,Vinb1n.jpg,32.0,24.0,0.0,-1.0,0.0,27.0,35.0,1.099,-0.10476283643102473,8.0,-0.026420989087666227,-0.422735825402661,0.3963148363149948
379,Exp1,d11032021,JY6WO,deliberation,0.0,3.0,43.0,5.0,7.0,Kupb1n.jpg,Pica1n.jpg,32.0,50.0,0.0,1.0,0.0,7.0,5.0,1.03,-0.2356966153968941,-18.0,-0.026420989087666227,0.8652873926210721,-0.8917083817087383
380,Exp1,d11032021,JY6WO,deliberation,0.0,3.0,44.0,52.0,55.0,Picaa1.jpg,Lewic1.jpg,37.0,26.0,0.0,-1.0,1.0,52.0,55.0,0.669,-0.9207269662183271,11.0,0.22127578360920552,-0.3236571163239123,0.5449328999331178
381,Exp1,d11032021,JY6WO,deliberation,1.0,3.0,45.0,12.0,31.0,Kupkc1.jpg,Maca1n.jpg,23.0,26.0,0.0,1.0,0.0,31.0,12.0,0.67,-0.9188293752188217,-3.0,-0.4722751799420354,-0.3236571163239123,-0.14861806361812308
382,Exp1,d11032021,JY6WO,deliberation,1.0,3.0,46.0,36.0,26.0,Gorkf1.jpg,Clib1n.jpg,26.0,25.0,0.0,-1.0,1.0,36.0,26.0,0.611,-1.0307872441896377,1.0,-0.3236571163239123,-0.37319647086328667,0.04953935453937436
383,Exp1,d11032021,JY6WO,deliberation,1.0,3.0,47.0,13.0,46.0,Picak1.jpg,Deka1n.jpg,26.0,21.0,0.0,1.0,1.0,13.0,46.0,0.64,-0.9757571052039824,5.0,-0.3236571163239123,-0.5713538890207841,0.2476967726968718
384,Exp1,d11032021,pxiIK,deliberation,1.0,1.0,0.0,34.0,26.0,Monb1n.jpg,Clib1n.jpg,37.0,58.0,1.0,-1.0,1.0,34.0,26.0,0.745,-0.9148155495158629,-21.0,-1.114172268880187,0.14263798965968372,-1.2568102585398706
385,Exp1,d11032021,pxiIK,deliberation,1.0,1.0,1.0,45.0,41.0,Klia1n.jpg,Vincb1.jpg,36.0,62.0,1.0,-1.0,1.0,45.0,41.0,1.806,0.8295300383288285,-26.0,-1.1740203764297046,0.3820304198577543,-1.556050796287459
386,Exp1,d11032021,pxiIK,deliberation,0.0,1.0,2.0,13.0,9.0,Picak1.jpg,Lassc1.jpg,66.0,35.0,0.0,-1.0,1.0,13.0,9.0,2.753,2.386453008817917,31.0,0.6214228500558249,-1.2338684839792222,1.855291334035047
387,Exp1,d11032021,pxiIK,deliberation,0.0,1.0,3.0,49.0,48.0,Hinda1.jpg,Picb1n.jpg,65.0,65.0,0.0,-1.0,0.0,48.0,49.0,2.409,1.8208970406571494,0.0,0.5615747425063072,0.5615747425063072,0.0
388,Exp1,d11032021,pxiIK,deliberation,1.0,1.0,4.0,43.0,21.0,Picac1.jpg,Lewb1n.jpg,67.0,69.0,1.0,1.0,1.0,43.0,21.0,0.707,-0.9772897553010639,-2.0,0.6812709576053426,0.8009671727043779,-0.11969621509903527
389,Exp1,d11032021,pxiIK,deliberation,1.0,1.0,5.0,29.0,35.0,Clifb1.jpg,Wdeka1.jpg,67.0,67.0,1.0,1.0,1.0,29.0,35.0,1.325,0.03873811773194196,0.0,0.6812709576053426,0.6812709576053426,0.0
390,Exp1,d11032021,pxiIK,deliberation,0.0,1.0,6.0,44.0,4.0,Lassf1.jpg,Mackb1.jpg,69.0,36.0,0.0,-1.0,0.0,4.0,44.0,2.274,1.5989492043149882,33.0,0.8009671727043779,-1.1740203764297046,1.9749875491340825
391,Exp1,d11032021,pxiIK,deliberation,0.0,1.0,7.0,42.0,38.0,Picc1n.jpg,Lasc1n.jpg,66.0,40.0,0.0,1.0,1.0,42.0,38.0,1.395,0.15382218102047024,26.0,0.6214228500558249,-0.934627946231634,1.556050796287459
392,Exp1,d11032021,pxiIK,deliberation,0.0,1.0,8.0,16.0,52.0,Lewa1n.jpg,Picaa1.jpg,69.0,58.0,0.0,-1.0,0.0,52.0,16.0,1.234,-0.11087116454314462,11.0,0.8009671727043779,0.14263798965968372,0.6583291830446942
393,Exp1,d11032021,pxiIK,deliberation,0.0,1.0,9.0,51.0,36.0,Gora1n.jpg,Gorkf1.jpg,62.0,66.0,0.0,1.0,0.0,36.0,51.0,1.282,-0.0319563782881538,-4.0,0.3820304198577543,0.6214228500558249,-0.23939243019807055
394,Exp1,d11032021,pxiIK,deliberation,1.0,1.0,10.0,54.0,40.0,Kupka1.jpg,Krab1n.jpg,51.0,63.0,1.0,1.0,1.0,54.0,40.0,1.804,0.8262419222348706,-12.0,-0.27629876318693986,0.44187852740727196,-0.7181772905942119
395,Exp1,d11032021,pxiIK,deliberation,1.0,1.0,11.0,28.0,59.0,Krasa1.jpg,Kraa1n.jpg,36.0,69.0,1.0,-1.0,1.0,28.0,59.0,1.779,0.7851404710603961,-33.0,-1.1740203764297046,0.8009671727043779,-1.9749875491340825
396,Exp1,d11032021,pxiIK,deliberation,0.0,1.0,12.0,17.0,55.0,Picab1.jpg,Lewic1.jpg,65.0,64.0,0.0,1.0,0.0,55.0,17.0,1.642,0.5599045186242766,1.0,0.5615747425063072,0.5017266349567896,0.05984810754951764
397,Exp1,d11032021,pxiIK,deliberation,1.0,1.0,13.0,24.0,56.0,Dekoa1.jpg,Luisc1.jpg,52.0,35.0,1.0,-1.0,1.0,24.0,56.0,1.136,-0.2719888531470842,17.0,-0.2164506556374222,-1.2338684839792222,1.0174178283418
398,Exp1,d11032021,pxiIK,deliberation,1.0,1.0,14.0,18.0,7.0,Krasb1.jpg,Pica1n.jpg,70.0,61.0,1.0,1.0,0.0,7.0,18.0,0.883,-0.6879355390327644,9.0,0.8608152802538955,0.3221823123082367,0.5386329679456588
399,Exp1,d11032021,pxiIK,deliberation,0.0,1.0,15.0,25.0,19.0,Clifa1.jpg,Macc1n.jpg,58.0,66.0,0.0,1.0,0.0,19.0,25.0,1.1,-0.33117494283832694,-8.0,0.14263798965968372,0.6214228500558249,-0.47878486039614115
400,Exp1,d11032021,pxiIK,deliberation,1.0,2.0,16.0,18.0,7.0,Krasb1.jpg,Pica1n.jpg,70.0,61.0,0.0,1.0,1.0,18.0,7.0,1.119,-0.2999378399457266,9.0,0.8608152802538955,0.3221823123082367,0.5386329679456588
401,Exp1,d11032021,pxiIK,deliberation,0.0,2.0,17.0,44.0,4.0,Lassf1.jpg,Mackb1.jpg,69.0,36.0,1.0,-1.0,0.0,4.0,44.0,0.746,-0.9131714914688839,33.0,0.8009671727043779,-1.1740203764297046,1.9749875491340825
402,Exp1,d11032021,pxiIK,deliberation,1.0,2.0,18.0,45.0,41.0,Klia1n.jpg,Vincb1.jpg,36.0,62.0,0.0,-1.0,1.0,45.0,41.0,1.284,-0.02866826219419585,-26.0,-1.1740203764297046,0.3820304198577543,-1.556050796287459
403,Exp1,d11032021,pxiIK,deliberation,1.0,2.0,19.0,34.0,26.0,Monb1n.jpg,Clib1n.jpg,37.0,58.0,0.0,-1.0,1.0,34.0,26.0,0.826,-0.781646847710566,-21.0,-1.114172268880187,0.14263798965968372,-1.2568102585398706
404,Exp1,d11032021,pxiIK,deliberation,0.0,2.0,20.0,17.0,55.0,Picab1.jpg,Lewic1.jpg,65.0,64.0,1.0,1.0,1.0,17.0,55.0,0.658,-1.0578485996030336,1.0,0.5615747425063072,0.5017266349567896,0.05984810754951764
405,Exp1,d11032021,pxiIK,deliberation,1.0,2.0,21.0,29.0,35.0,Clifb1.jpg,Wdeka1.jpg,67.0,67.0,0.0,1.0,1.0,29.0,35.0,2.82,2.4966048979655078,0.0,0.6812709576053426,0.6812709576053426,0.0
406,Exp1,d11032021,pxiIK,deliberation,0.0,2.0,22.0,49.0,48.0,Hinda1.jpg,Picb1n.jpg,65.0,65.0,1.0,-1.0,0.0,48.0,49.0,1.479,0.2919230569667042,0.0,0.5615747425063072,0.5615747425063072,0.0
407,Exp1,d11032021,pxiIK,deliberation,0.0,2.0,23.0,51.0,36.0,Gora1n.jpg,Gorkf1.jpg,62.0,66.0,1.0,1.0,0.0,36.0,51.0,2.01,1.1649178799125388,-4.0,0.3820304198577543,0.6214228500558249,-0.23939243019807055
408,Exp1,d11032021,pxiIK,deliberation,0.0,2.0,24.0,42.0,38.0,Picc1n.jpg,Lasc1n.jpg,66.0,40.0,1.0,1.0,1.0,42.0,38.0,1.595,0.482633790416265,26.0,0.6214228500558249,-0.934627946231634,1.556050796287459
409,Exp1,d11032021,pxiIK,deliberation,1.0,2.0,25.0,24.0,56.0,Dekoa1.jpg,Luisc1.jpg,52.0,35.0,0.0,-1.0,1.0,24.0,56.0,1.791,0.8048691676241437,17.0,-0.2164506556374222,-1.2338684839792222,1.0174178283418
410,Exp1,d11032021,pxiIK,deliberation,1.0,2.0,26.0,43.0,21.0,Picac1.jpg,Lewb1n.jpg,67.0,69.0,0.0,1.0,1.0,43.0,21.0,1.078,-0.3673442198718644,-2.0,0.6812709576053426,0.8009671727043779,-0.11969621509903527
411,Exp1,d11032021,pxiIK,deliberation,0.0,2.0,27.0,16.0,52.0,Lewa1n.jpg,Picaa1.jpg,69.0,58.0,1.0,-1.0,0.0,52.0,16.0,1.149,-0.25061609853635736,11.0,0.8009671727043779,0.14263798965968372,0.6583291830446942
412,Exp1,d11032021,pxiIK,deliberation,1.0,2.0,28.0,54.0,40.0,Kupka1.jpg,Krab1n.jpg,51.0,63.0,0.0,1.0,1.0,54.0,40.0,1.296,-0.008939565630448145,-12.0,-0.27629876318693986,0.44187852740727196,-0.7181772905942119
413,Exp1,d11032021,pxiIK,deliberation,0.0,2.0,29.0,25.0,19.0,Clifa1.jpg,Macc1n.jpg,58.0,66.0,1.0,1.0,0.0,19.0,25.0,1.422,0.1982117482889024,-8.0,0.14263798965968372,0.6214228500558249,-0.47878486039614115
414,Exp1,d11032021,pxiIK,deliberation,1.0,2.0,30.0,28.0,59.0,Krasa1.jpg,Kraa1n.jpg,36.0,69.0,0.0,-1.0,1.0,28.0,59.0,1.112,-0.31144624627457923,-33.0,-1.1740203764297046,0.8009671727043779,-1.9749875491340825
415,Exp1,d11032021,pxiIK,deliberation,0.0,2.0,31.0,13.0,9.0,Picak1.jpg,Lassc1.jpg,66.0,35.0,1.0,-1.0,1.0,13.0,9.0,0.796,-0.8309685891199351,31.0,0.6214228500558249,-1.2338684839792222,1.855291334035047
416,Exp1,d11032021,pxiIK,deliberation,0.0,3.0,32.0,44.0,4.0,Lassf1.jpg,Mackb1.jpg,69.0,36.0,0.0,-1.0,0.0,4.0,44.0,1.355,0.08805985914131122,33.0,0.8009671727043779,-1.1740203764297046,1.9749875491340825
417,Exp1,d11032021,pxiIK,deliberation,0.0,3.0,33.0,16.0,52.0,Lewa1n.jpg,Picaa1.jpg,69.0,58.0,0.0,-1.0,0.0,52.0,16.0,0.892,-0.6731390166099537,11.0,0.8009671727043779,0.14263798965968372,0.6583291830446942
418,Exp1,d11032021,pxiIK,deliberation,1.0,3.0,34.0,24.0,56.0,Dekoa1.jpg,Luisc1.jpg,52.0,35.0,0.0,-1.0,1.0,24.0,56.0,3.132,3.009551008622948,17.0,-0.2164506556374222,-1.2338684839792222,1.0174178283418
419,Exp1,d11032021,pxiIK,deliberation,0.0,3.0,35.0,42.0,38.0,Picc1n.jpg,Lasc1n.jpg,66.0,40.0,0.0,1.0,1.0,42.0,38.0,0.601,-1.1515599082808352,26.0,0.6214228500558249,-0.934627946231634,1.556050796287459
420,Exp1,d11032021,pxiIK,deliberation,1.0,3.0,36.0,29.0,35.0,Clifb1.jpg,Wdeka1.jpg,67.0,67.0,0.0,1.0,1.0,29.0,35.0,0.817,-0.7964433701333768,0.0,0.6812709576053426,0.6812709576053426,0.0
421,Exp1,d11032021,pxiIK,deliberation,0.0,3.0,37.0,25.0,19.0,Clifa1.jpg,Macc1n.jpg,58.0,66.0,0.0,1.0,0.0,19.0,25.0,1.557,0.4201595846310639,-8.0,0.14263798965968372,0.6214228500558249,-0.47878486039614115
422,Exp1,d11032021,pxiIK,deliberation,0.0,3.0,38.0,49.0,48.0,Hinda1.jpg,Picb1n.jpg,65.0,65.0,0.0,-1.0,0.0,48.0,49.0,1.07,-0.3804966842476962,0.0,0.5615747425063072,0.5615747425063072,0.0
423,Exp1,d11032021,pxiIK,deliberation,0.0,3.0,39.0,51.0,36.0,Gora1n.jpg,Gorkf1.jpg,62.0,66.0,0.0,1.0,0.0,36.0,51.0,0.658,-1.0578485996030336,-4.0,0.3820304198577543,0.6214228500558249,-0.23939243019807055
424,Exp1,d11032021,pxiIK,deliberation,0.0,3.0,40.0,17.0,55.0,Picab1.jpg,Lewic1.jpg,65.0,64.0,0.0,1.0,1.0,17.0,55.0,1.066,-0.3870729164356121,1.0,0.5615747425063072,0.5017266349567896,0.05984810754951764
425,Exp1,d11032021,pxiIK,deliberation,1.0,3.0,41.0,18.0,7.0,Krasb1.jpg,Pica1n.jpg,70.0,61.0,0.0,1.0,0.0,7.0,18.0,0.439,-1.4178973118914289,9.0,0.8608152802538955,0.3221823123082367,0.5386329679456588
426,Exp1,d11032021,pxiIK,deliberation,1.0,3.0,42.0,28.0,59.0,Krasa1.jpg,Kraa1n.jpg,36.0,69.0,0.0,-1.0,0.0,59.0,28.0,1.075,-0.37227639401280155,-33.0,-1.1740203764297046,0.8009671727043779,-1.9749875491340825
427,Exp1,d11032021,pxiIK,deliberation,1.0,3.0,43.0,34.0,26.0,Monb1n.jpg,Clib1n.jpg,37.0,58.0,0.0,-1.0,1.0,34.0,26.0,0.82,-0.7915111959924399,-21.0,-1.114172268880187,0.14263798965968372,-1.2568102585398706
428,Exp1,d11032021,pxiIK,deliberation,0.0,3.0,44.0,13.0,9.0,Picak1.jpg,Lassc1.jpg,66.0,35.0,0.0,-1.0,1.0,13.0,9.0,0.659,-1.0562045415560546,31.0,0.6214228500558249,-1.2338684839792222,1.855291334035047
429,Exp1,d11032021,pxiIK,deliberation,1.0,3.0,45.0,54.0,40.0,Kupka1.jpg,Krab1n.jpg,51.0,63.0,0.0,1.0,1.0,54.0,40.0,0.996,-0.5021569797241404,-12.0,-0.27629876318693986,0.44187852740727196,-0.7181772905942119
430,Exp1,d11032021,pxiIK,deliberation,1.0,3.0,46.0,43.0,21.0,Picac1.jpg,Lewb1n.jpg,67.0,69.0,0.0,1.0,1.0,43.0,21.0,0.639,-1.089085702495634,-2.0,0.6812709576053426,0.8009671727043779,-0.11969621509903527
431,Exp1,d11032021,pxiIK,deliberation,1.0,3.0,47.0,45.0,41.0,Klia1n.jpg,Vincb1.jpg,36.0,62.0,0.0,-1.0,1.0,45.0,41.0,1.238,-0.10429493235522871,-26.0,-1.1740203764297046,0.3820304198577543,-1.556050796287459
432,Exp1,d11032021,UiTO9,deliberation,0.0,1.0,0.0,38.0,49.0,Lasc1n.jpg,Hinda1.jpg,59.0,63.0,0.0,1.0,1.0,38.0,49.0,1.143,-1.041177732828247,-4.0,-0.1132739873370957,0.06796439240225742,-0.18123837973935314
433,Exp1,d11032021,UiTO9,deliberation,1.0,1.0,1.0,46.0,28.0,Deka1n.jpg,Krasa1.jpg,54.0,69.0,1.0,-1.0,0.0,28.0,46.0,1.748,-0.5607944951718338,-15.0,-0.3398219620112871,0.3398219620112871,-0.6796439240225742
434,Exp1,d11032021,UiTO9,deliberation,0.0,1.0,2.0,47.0,57.0,Kupkd1.jpg,Lewc1n.jpg,65.0,71.0,0.0,-1.0,1.0,47.0,57.0,3.756,1.0336014407192038,-6.0,0.15858358227193398,0.43044115188096366,-0.2718575696090297
435,Exp1,d11032021,UiTO9,deliberation,1.0,1.0,3.0,27.0,59.0,Vinb1n.jpg,Kraa1n.jpg,76.0,68.0,1.0,1.0,0.0,59.0,27.0,5.174,2.159524467160186,8.0,0.6569891265551551,0.29451236707644884,0.3624767594787062
436,Exp1,d11032021,UiTO9,deliberation,1.0,1.0,4.0,42.0,15.0,Picc1n.jpg,Clia1n.jpg,63.0,60.0,1.0,1.0,1.0,42.0,15.0,2.199,-0.20269062710068944,3.0,0.06796439240225742,-0.06796439240225742,0.13592878480451484
437,Exp1,d11032021,UiTO9,deliberation,0.0,1.0,5.0,18.0,37.0,Krasb1.jpg,Mondb1.jpg,69.0,68.0,0.0,1.0,1.0,18.0,37.0,3.299,0.6707334413655165,1.0,0.3398219620112871,0.29451236707644884,0.04530959493483827
438,Exp1,d11032021,UiTO9,deliberation,1.0,1.0,6.0,14.0,8.0,Kupkb1.jpg,Klina1.jpg,63.0,63.0,1.0,1.0,0.0,8.0,14.0,3.556,0.8747970646344393,0.0,0.06796439240225742,0.06796439240225742,0.0
439,Exp1,d11032021,UiTO9,deliberation,0.0,1.0,7.0,16.0,13.0,Lewa1n.jpg,Picak1.jpg,68.0,62.0,0.0,1.0,0.0,13.0,16.0,3.367,0.7247269292343366,6.0,0.29451236707644884,0.02265479746741914,0.2718575696090297
440,Exp1,d11032021,UiTO9,deliberation,0.0,1.0,8.0,10.0,53.0,Stera1.jpg,Gorka1.jpg,63.0,64.0,0.0,-1.0,0.0,53.0,10.0,2.777,0.2562540197842808,-1.0,0.06796439240225742,0.1132739873370957,-0.045309594934838285
441,Exp1,d11032021,UiTO9,deliberation,1.0,1.0,9.0,9.0,24.0,Lassc1.jpg,Dekoa1.jpg,57.0,70.0,1.0,-1.0,0.0,24.0,9.0,2.74,0.22687521020859938,-13.0,-0.20389317720677227,0.3851315569461254,-0.5890247341528977
442,Exp1,d11032021,UiTO9,deliberation,1.0,1.0,10.0,12.0,26.0,Kupkc1.jpg,Clib1n.jpg,61.0,71.0,1.0,-1.0,1.0,12.0,26.0,6.184,2.9614865663882477,-10.0,-0.02265479746741914,0.43044115188096366,-0.4530959493483828
443,Exp1,d11032021,UiTO9,deliberation,1.0,1.0,11.0,6.0,4.0,Wdekc1.jpg,Mackb1.jpg,71.0,60.0,1.0,-1.0,0.0,4.0,6.0,3.744,1.0240731781541181,11.0,0.43044115188096366,-0.06796439240225742,0.4984055442832211
444,Exp1,d11032021,UiTO9,deliberation,0.0,1.0,12.0,34.0,43.0,Monb1n.jpg,Picac1.jpg,57.0,72.0,0.0,-1.0,0.0,43.0,34.0,1.744,-0.5639705826935291,-15.0,-0.20389317720677227,0.47575074681580193,-0.6796439240225742
445,Exp1,d11032021,UiTO9,deliberation,1.0,1.0,13.0,48.0,7.0,Picb1n.jpg,Pica1n.jpg,66.0,50.0,1.0,1.0,0.0,7.0,48.0,2.36,-0.07485310435245382,16.0,0.20389317720677227,-0.5210603417506402,0.7249535189574124
446,Exp1,d11032021,UiTO9,deliberation,0.0,1.0,14.0,19.0,17.0,Macc1n.jpg,Picab1.jpg,75.0,64.0,0.0,1.0,1.0,19.0,17.0,2.728,0.2173469476435135,11.0,0.6116795316203167,0.1132739873370957,0.49840554428322104
447,Exp1,d11032021,UiTO9,deliberation,0.0,1.0,15.0,25.0,31.0,Clifa1.jpg,Maca1n.jpg,55.0,71.0,0.0,-1.0,0.0,31.0,25.0,2.538,0.06648279036298672,-16.0,-0.29451236707644884,0.43044115188096366,-0.7249535189574126
448,Exp1,d11032021,UiTO9,deliberation,1.0,2.0,16.0,12.0,26.0,Kupkc1.jpg,Clib1n.jpg,61.0,71.0,0.0,-1.0,1.0,12.0,26.0,2.258,-0.15584333615568371,-10.0,-0.02265479746741914,0.43044115188096366,-0.4530959493483828
449,Exp1,d11032021,UiTO9,deliberation,0.0,2.0,17.0,25.0,31.0,Clifa1.jpg,Maca1n.jpg,55.0,71.0,1.0,-1.0,1.0,25.0,31.0,4.588,1.6942276452318252,-16.0,-0.29451236707644884,0.43044115188096366,-0.7249535189574126
450,Exp1,d11032021,UiTO9,deliberation,0.0,2.0,18.0,16.0,13.0,Lewa1n.jpg,Picak1.jpg,68.0,62.0,1.0,1.0,0.0,13.0,16.0,3.279,0.65485300375704,6.0,0.29451236707644884,0.02265479746741914,0.2718575696090297
451,Exp1,d11032021,UiTO9,deliberation,1.0,2.0,19.0,14.0,8.0,Kupkb1.jpg,Klina1.jpg,63.0,63.0,0.0,1.0,0.0,8.0,14.0,2.681,0.18002791926359368,0.0,0.06796439240225742,0.06796439240225742,0.0
452,Exp1,d11032021,UiTO9,deliberation,1.0,2.0,20.0,6.0,4.0,Wdekc1.jpg,Mackb1.jpg,71.0,60.0,0.0,-1.0,0.0,4.0,6.0,1.885,-0.4520134975537699,11.0,0.43044115188096366,-0.06796439240225742,0.4984055442832211
453,Exp1,d11032021,UiTO9,deliberation,0.0,2.0,21.0,18.0,37.0,Krasb1.jpg,Mondb1.jpg,69.0,68.0,1.0,1.0,,,,,,1.0,0.3398219620112871,0.29451236707644884,0.04530959493483827
454,Exp1,d11032021,UiTO9,deliberation,0.0,2.0,21.0,18.0,37.0,Krasb1.jpg,Mondb1.jpg,69.0,68.0,1.0,1.0,0.0,37.0,18.0,0.83,-1.2897065814009037,1.0,0.3398219620112871,0.29451236707644884,0.04530959493483827
455,Exp1,d11032021,UiTO9,deliberation,0.0,2.0,22.0,38.0,49.0,Lasc1n.jpg,Hinda1.jpg,59.0,63.0,1.0,1.0,0.0,49.0,38.0,2.742,0.22846325396944686,-4.0,-0.1132739873370957,0.06796439240225742,-0.18123837973935314
456,Exp1,d11032021,UiTO9,deliberation,1.0,2.0,23.0,27.0,59.0,Vinb1n.jpg,Kraa1n.jpg,76.0,68.0,0.0,1.0,1.0,27.0,59.0,3.58,0.893853589764611,8.0,0.6569891265551551,0.29451236707644884,0.3624767594787062
457,Exp1,d11032021,UiTO9,deliberation,0.0,2.0,24.0,19.0,17.0,Macc1n.jpg,Picab1.jpg,75.0,64.0,1.0,1.0,1.0,19.0,17.0,1.548,-0.7195988712565984,11.0,0.6116795316203167,0.1132739873370957,0.49840554428322104
458,Exp1,d11032021,UiTO9,deliberation,0.0,2.0,25.0,47.0,57.0,Kupkd1.jpg,Lewc1n.jpg,65.0,71.0,1.0,-1.0,1.0,47.0,57.0,5.274,2.238926655202568,-6.0,0.15858358227193398,0.43044115188096366,-0.2718575696090297
459,Exp1,d11032021,UiTO9,deliberation,1.0,2.0,26.0,48.0,7.0,Picb1n.jpg,Pica1n.jpg,66.0,50.0,0.0,1.0,0.0,7.0,48.0,3.521,0.8470062988196053,16.0,0.20389317720677227,-0.5210603417506402,0.7249535189574124
460,Exp1,d11032021,UiTO9,deliberation,0.0,2.0,27.0,34.0,43.0,Monb1n.jpg,Picac1.jpg,57.0,72.0,1.0,-1.0,0.0,43.0,34.0,1.086,-1.086436980012405,-15.0,-0.20389317720677227,0.47575074681580193,-0.6796439240225742
461,Exp1,d11032021,UiTO9,deliberation,1.0,2.0,28.0,9.0,24.0,Lassc1.jpg,Dekoa1.jpg,57.0,70.0,0.0,-1.0,1.0,9.0,24.0,4.571,1.68072927326462,-13.0,-0.20389317720677227,0.3851315569461254,-0.5890247341528977
462,Exp1,d11032021,UiTO9,deliberation,1.0,2.0,29.0,46.0,28.0,Deka1n.jpg,Krasa1.jpg,54.0,69.0,0.0,-1.0,0.0,28.0,46.0,2.329,-0.09946778264559211,-15.0,-0.3398219620112871,0.3398219620112871,-0.6796439240225742
463,Exp1,d11032021,UiTO9,deliberation,1.0,2.0,30.0,42.0,15.0,Picc1n.jpg,Clia1n.jpg,63.0,60.0,0.0,1.0,1.0,42.0,15.0,2.362,-0.073265060591606,3.0,0.06796439240225742,-0.06796439240225742,0.13592878480451484
464,Exp1,d11032021,UiTO9,deliberation,0.0,2.0,31.0,10.0,53.0,Stera1.jpg,Gorka1.jpg,63.0,64.0,1.0,-1.0,0.0,53.0,10.0,0.844,-1.2785902750749703,-1.0,0.06796439240225742,0.1132739873370957,-0.045309594934838285
465,Exp1,d11032021,UiTO9,deliberation,0.0,3.0,32.0,19.0,17.0,Macc1n.jpg,Picab1.jpg,75.0,64.0,0.0,1.0,1.0,19.0,17.0,2.291,-0.1296406141016976,11.0,0.6116795316203167,0.1132739873370957,0.49840554428322104
466,Exp1,d11032021,UiTO9,deliberation,0.0,3.0,33.0,34.0,43.0,Monb1n.jpg,Picac1.jpg,57.0,72.0,0.0,-1.0,0.0,43.0,34.0,1.746,-0.5623825389326814,-15.0,-0.20389317720677227,0.47575074681580193,-0.6796439240225742
467,Exp1,d11032021,UiTO9,deliberation,1.0,3.0,34.0,27.0,59.0,Vinb1n.jpg,Kraa1n.jpg,76.0,68.0,0.0,1.0,0.0,59.0,27.0,1.217,-0.982420113676884,8.0,0.6569891265551551,0.29451236707644884,0.3624767594787062
468,Exp1,d11032021,UiTO9,deliberation,0.0,3.0,35.0,25.0,31.0,Clifa1.jpg,Maca1n.jpg,55.0,71.0,0.0,-1.0,1.0,25.0,31.0,1.964,-0.3892857690002879,-16.0,-0.29451236707644884,0.43044115188096366,-0.7249535189574126
469,Exp1,d11032021,UiTO9,deliberation,1.0,3.0,36.0,42.0,15.0,Picc1n.jpg,Clia1n.jpg,63.0,60.0,0.0,1.0,1.0,42.0,15.0,2.218,-0.1876042113726367,3.0,0.06796439240225742,-0.06796439240225742,0.13592878480451484
470,Exp1,d11032021,UiTO9,deliberation,1.0,3.0,37.0,14.0,8.0,Kupkb1.jpg,Klina1.jpg,63.0,63.0,0.0,1.0,0.0,8.0,14.0,1.146,-1.0387956671869756,0.0,0.06796439240225742,0.06796439240225742,0.0
471,Exp1,d11032021,UiTO9,deliberation,1.0,3.0,38.0,12.0,26.0,Kupkc1.jpg,Clib1n.jpg,61.0,71.0,0.0,-1.0,1.0,12.0,26.0,1.243,-0.9617755447858646,-10.0,-0.02265479746741914,0.43044115188096366,-0.4530959493483828
472,Exp1,d11032021,UiTO9,deliberation,1.0,3.0,39.0,46.0,28.0,Deka1n.jpg,Krasa1.jpg,54.0,69.0,0.0,-1.0,0.0,28.0,46.0,1.184,-1.0086228357308702,-15.0,-0.3398219620112871,0.3398219620112871,-0.6796439240225742
473,Exp1,d11032021,UiTO9,deliberation,0.0,3.0,40.0,18.0,37.0,Krasb1.jpg,Mondb1.jpg,69.0,68.0,0.0,1.0,1.0,18.0,37.0,1.791,-0.5266515543136093,1.0,0.3398219620112871,0.29451236707644884,0.04530959493483827
474,Exp1,d11032021,UiTO9,deliberation,0.0,3.0,41.0,10.0,53.0,Stera1.jpg,Gorka1.jpg,63.0,64.0,0.0,-1.0,0.0,53.0,10.0,1.993,-0.3662591344679969,-1.0,0.06796439240225742,0.1132739873370957,-0.045309594934838285
475,Exp1,d11032021,UiTO9,deliberation,0.0,3.0,42.0,38.0,49.0,Lasc1n.jpg,Hinda1.jpg,59.0,63.0,0.0,1.0,0.0,49.0,38.0,1.495,-0.761682030919061,-4.0,-0.1132739873370957,0.06796439240225742,-0.18123837973935314
476,Exp1,d11032021,UiTO9,deliberation,1.0,3.0,43.0,6.0,4.0,Wdekc1.jpg,Mackb1.jpg,71.0,60.0,0.0,-1.0,0.0,4.0,6.0,1.941,-0.40754827225003576,11.0,0.43044115188096366,-0.06796439240225742,0.4984055442832211
477,Exp1,d11032021,UiTO9,deliberation,0.0,3.0,44.0,47.0,57.0,Kupkd1.jpg,Lewc1n.jpg,65.0,71.0,0.0,-1.0,0.0,57.0,47.0,1.068,-1.1007293738600337,-6.0,0.15858358227193398,0.43044115188096366,-0.2718575696090297
478,Exp1,d11032021,UiTO9,deliberation,0.0,3.0,45.0,16.0,13.0,Lewa1n.jpg,Picak1.jpg,68.0,62.0,0.0,1.0,0.0,13.0,16.0,2.052,-0.31941184352299135,6.0,0.29451236707644884,0.02265479746741914,0.2718575696090297
479,Exp1,d11032021,UiTO9,deliberation,1.0,3.0,46.0,9.0,24.0,Lassc1.jpg,Dekoa1.jpg,57.0,70.0,0.0,-1.0,0.0,24.0,9.0,1.401,-0.8363200876789004,-13.0,-0.20389317720677227,0.3851315569461254,-0.5890247341528977
480,Exp1,d11032021,UiTO9,deliberation,1.0,3.0,47.0,48.0,7.0,Picb1n.jpg,Pica1n.jpg,66.0,50.0,0.0,1.0,1.0,48.0,7.0,0.62,-1.4564511762899066,16.0,0.20389317720677227,-0.5210603417506402,0.7249535189574124
481,Exp1,d11032021,MJ2Dl,deliberation,0.0,1.0,0.0,58.0,52.0,Mackc1.jpg,Picaa1.jpg,93.0,71.0,0.0,-1.0,0.0,52.0,58.0,4.119,1.2635267177623657,22.0,1.0437635512140673,0.2917068440074249,0.7520567072066424
482,Exp1,d11032021,MJ2Dl,deliberation,1.0,1.0,1.0,42.0,35.0,Picc1n.jpg,Wdeka1.jpg,85.0,95.0,1.0,-1.0,1.0,42.0,35.0,3.668,0.9497179620132071,-10.0,0.7702883849571065,1.1121323427783076,-0.34184395782120114
483,Exp1,d11032021,MJ2Dl,deliberation,1.0,1.0,2.0,21.0,36.0,Lewb1n.jpg,Gorkf1.jpg,82.0,55.0,1.0,1.0,1.0,21.0,36.0,2.793,0.34088722746661265,27.0,0.6677351976107462,-0.2552434885064969,0.9229786861172431
484,Exp1,d11032021,MJ2Dl,deliberation,1.0,1.0,3.0,18.0,40.0,Krasb1.jpg,Krab1n.jpg,56.0,54.0,1.0,-1.0,1.0,18.0,40.0,9.524,5.0243611408759,2.0,-0.2210590927243768,-0.289427884288617,0.0683687915642402
485,Exp1,d11032021,MJ2Dl,deliberation,0.0,1.0,4.0,19.0,38.0,Macc1n.jpg,Lasc1n.jpg,78.0,76.0,0.0,-1.0,0.0,38.0,19.0,2.564,0.1815475266538467,2.0,0.5309976144822657,0.46262882291802543,0.06836879156424025
486,Exp1,d11032021,MJ2Dl,deliberation,1.0,1.0,5.0,47.0,34.0,Kupkd1.jpg,Monb1n.jpg,77.0,69.0,1.0,1.0,,,,,,8.0,0.49681321870014555,0.22333805244318466,0.2734751662569609
487,Exp1,d11032021,MJ2Dl,deliberation,1.0,1.0,5.0,47.0,34.0,Kupkd1.jpg,Monb1n.jpg,77.0,69.0,1.0,1.0,1.0,47.0,34.0,1.057,-0.8670329498738308,8.0,0.49681321870014555,0.22333805244318466,0.2734751662569609
488,Exp1,d11032021,MJ2Dl,deliberation,1.0,1.0,6.0,54.0,14.0,Kupka1.jpg,Kupkb1.jpg,69.0,56.0,1.0,-1.0,0.0,14.0,54.0,1.775,-0.36744384426873966,13.0,0.22333805244318466,-0.2210590927243768,0.44439714516756146
489,Exp1,d11032021,MJ2Dl,deliberation,0.0,1.0,7.0,22.0,37.0,Macb1n.jpg,Mondb1.jpg,55.0,89.0,0.0,1.0,0.0,37.0,22.0,2.361,0.04029879623903692,-34.0,-0.2552434885064969,0.9070259680855869,-1.162269456592084
