,Exp,group,PID,phase,trial,condition,old_pair,stimulus_left,stimulus_right,old_response,rt_pairs,chosen_object,left_object_chosen,rt_object,pairs_acc,zscored_rt_pairs,zscored_rt_object
0,Exp1,d11032021,ZGrrY,memory_test,0.0,0.0,0.0,21.0,12.0,1.0,2469.0,,1.0,2706.0,0,0.8541180468389384,3.5036048790811978
1,Exp1,d11032021,ZGrrY,memory_test,1.0,0.0,0.0,39.0,51.0,1.0,2173.0,,1.0,755.0,0,0.3944733596246651,0.07636832379261306
2,Exp1,d11032021,ZGrrY,memory_test,2.0,1.0,0.0,58.0,50.0,0.0,2206.0,,,,1,0.4457175308343645,
3,Exp1,d11032021,ZGrrY,memory_test,3.0,0.0,0.0,35.0,33.0,0.0,2300.0,,,,1,0.5916857760983567,
4,Exp1,d11032021,ZGrrY,memory_test,4.0,0.0,1.0,23.0,47.0,1.0,1732.0,23.0,1.0,442.0,1,-0.2903351101776813,-0.4734651163946381
5,Exp1,d11032021,ZGrrY,memory_test,5.0,0.0,1.0,56.0,2.0,1.0,1451.0,56.0,1.0,398.0,1,-0.7266869922966368,-0.5507579961653699
6,Exp1,d11032021,ZGrrY,memory_test,6.0,1.0,1.0,48.0,36.0,0.0,1481.0,48.0,,,0,-0.6801013821060009,
7,Exp1,d11032021,ZGrrY,memory_test,7.0,1.0,1.0,31.0,0.0,0.0,1846.0,31.0,,,0,-0.11330979145326522,
8,Exp1,d11032021,ZGrrY,memory_test,8.0,1.0,0.0,14.0,27.0,1.0,1447.0,,0.0,1455.0,0,-0.7328984069887216,1.3060277746906188
9,Exp1,d11032021,ZGrrY,memory_test,9.0,1.0,1.0,58.0,10.0,0.0,1220.0,58.0,,,0,-1.0853961907645324,
10,Exp1,d11032021,ZGrrY,memory_test,10.0,1.0,0.0,31.0,53.0,1.0,1573.0,,1.0,1000.0,0,-0.5372388441880511,0.5067491316069151
11,Exp1,d11032021,ZGrrY,memory_test,11.0,0.0,1.0,35.0,21.0,1.0,1141.0,35.0,1.0,1087.0,1,-1.208071630933207,0.6595782347899529
12,Exp1,d11032021,ZGrrY,memory_test,12.0,1.0,1.0,27.0,22.0,1.0,969.0,27.0,1.0,379.0,1,-1.4751624626928521,-0.5841344669754587
13,Exp1,d11032021,ZGrrY,memory_test,13.0,0.0,1.0,39.0,45.0,1.0,1111.0,39.0,1.0,746.0,1,-1.2546572411238426,0.06055841656678156
14,Exp1,d11032021,ZGrrY,memory_test,14.0,1.0,1.0,16.0,1.0,0.0,3352.0,1.0,,,0,2.2252878401166525,
15,Exp1,d11032021,ZGrrY,memory_test,15.0,1.0,0.0,16.0,18.0,0.0,2446.0,,,,1,0.818402412359451,
16,Exp1,d11032021,ZGrrY,memory_test,16.0,1.0,1.0,17.0,14.0,1.0,3101.0,17.0,1.0,737.0,1,1.8355215681883328,0.04474850934095006
17,Exp1,d11032021,ZGrrY,memory_test,17.0,1.0,0.0,32.0,22.0,1.0,1052.0,,1.0,469.0,0,-1.346275607832093,-0.4260353947171436
18,Exp1,d11032021,ZGrrY,memory_test,18.0,0.0,1.0,11.0,12.0,1.0,993.0,12.0,0.0,468.0,1,-1.4378939745403434,-0.42779205107556934
19,Exp1,d11032021,ZGrrY,memory_test,19.0,0.0,0.0,2.0,23.0,0.0,2041.0,,,,1,0.18949667478586754,
20,Exp1,d11032021,ZGrrY,memory_test,20.0,0.0,0.0,47.0,5.0,1.0,2158.0,,0.0,581.0,0,0.37118055452934723,-0.22928988257346267
21,Exp1,d11032021,ZGrrY,memory_test,21.0,1.0,1.0,50.0,18.0,1.0,2263.0,18.0,0.0,456.0,1,0.5342301901965726,-0.44887192737667797
22,Exp1,d11032021,ZGrrY,memory_test,22.0,1.0,1.0,32.0,53.0,1.0,1758.0,32.0,1.0,351.0,1,-0.24996091467913029,-0.6333208450113789
23,Exp1,d11032021,ZGrrY,memory_test,23.0,0.0,0.0,15.0,56.0,0.0,2184.0,,,,1,0.41155475002789826,
24,Exp1,d11032021,ZGrrY,memory_test,24.0,1.0,0.0,36.0,17.0,0.0,1261.0,,,,1,-1.0217291901706635,
25,Exp1,d11032021,ZGrrY,memory_test,25.0,0.0,0.0,57.0,45.0,0.0,1463.0,,,,1,-0.7080527482203824,
26,Exp1,d11032021,ZGrrY,memory_test,26.0,0.0,1.0,15.0,3.0,0.0,1963.0,3.0,,,0,0.06837408829021444,
27,Exp1,d11032021,ZGrrY,memory_test,27.0,0.0,1.0,57.0,33.0,1.0,2642.0,57.0,1.0,365.0,1,1.122761732271605,-0.6087276559934187
28,Exp1,d11032021,ZGrrY,memory_test,28.0,1.0,0.0,1.0,0.0,0.0,3191.0,,,,1,1.9752783987602403,
29,Exp1,d11032021,ZGrrY,memory_test,29.0,1.0,0.0,10.0,48.0,1.0,2550.0,,0.0,396.0,0,0.9798991943536551,-0.5542713088822213
30,Exp1,d11032021,ZGrrY,memory_test,30.0,0.0,0.0,3.0,11.0,1.0,1857.0,,1.0,338.0,0,-0.0962284010500321,-0.6561573776709133
31,Exp1,d11032021,ZGrrY,memory_test,31.0,0.0,1.0,51.0,5.0,1.0,2013.0,5.0,0.0,390.0,1,0.14601677194127413,-0.5648112470327756
32,Exp1,d11042021,l6WpQ,memory_test,0.0,1.0,1.0,10.0,46.0,0.0,4397.0,10.0,,,0,4.430186857778076,
33,Exp1,d11042021,l6WpQ,memory_test,1.0,1.0,0.0,20.0,12.0,0.0,1486.0,,,,1,0.9046581219210572,
34,Exp1,d11042021,l6WpQ,memory_test,2.0,0.0,0.0,25.0,0.0,0.0,1241.0,,,,1,0.6079372217888107,
35,Exp1,d11042021,l6WpQ,memory_test,3.0,0.0,1.0,25.0,32.0,0.0,1554.0,32.0,,,0,0.987013310529191,
36,Exp1,d11042021,l6WpQ,memory_test,4.0,0.0,0.0,42.0,32.0,0.0,1249.0,,,,1,0.6176260675074147,
37,Exp1,d11042021,l6WpQ,memory_test,5.0,0.0,1.0,30.0,39.0,0.0,1221.0,30.0,,,0,0.5837151074923008,
38,Exp1,d11042021,l6WpQ,memory_test,6.0,0.0,0.0,39.0,55.0,0.0,1396.0,,,,1,0.7956586075867625,
39,Exp1,d11042021,l6WpQ,memory_test,7.0,1.0,0.0,34.0,36.0,1.0,1461.0,,0.0,6051.0,0,0.8743804790504198,
40,Exp1,d11042021,l6WpQ,memory_test,8.0,0.0,0.0,43.0,51.0,0.0,1532.0,,,,1,0.96036898480303,
41,Exp1,d11042021,l6WpQ,memory_test,9.0,1.0,0.0,14.0,1.0,0.0,254.0,,,,1,-0.5874241187439538,
42,Exp1,d11042021,l6WpQ,memory_test,10.0,1.0,0.0,56.0,9.0,0.0,266.0,,,,1,-0.5728908501660479,
43,Exp1,d11042021,l6WpQ,memory_test,11.0,1.0,1.0,34.0,57.0,0.0,1002.0,57.0,,,0,0.3184829559455172,
44,Exp1,d11042021,l6WpQ,memory_test,12.0,0.0,0.0,30.0,45.0,0.0,294.0,,,,1,-0.5389798901509341,
45,Exp1,d11042021,l6WpQ,memory_test,13.0,1.0,0.0,10.0,24.0,0.0,290.0,,,,1,-0.543824313010236,
46,Exp1,d11042021,l6WpQ,memory_test,14.0,0.0,0.0,40.0,50.0,0.0,292.0,,,,1,-0.541402101580585,
47,Exp1,d11042021,l6WpQ,memory_test,15.0,1.0,1.0,23.0,24.0,0.0,228.0,23.0,,,0,-0.6189128673294167,
48,Exp1,d11042021,l6WpQ,memory_test,16.0,0.0,1.0,40.0,6.0,0.0,275.0,40.0,,,0,-0.5619908987326184,
49,Exp1,d11042021,l6WpQ,memory_test,17.0,1.0,1.0,14.0,56.0,0.0,388.0,56.0,,,0,-0.4251359529573374,
50,Exp1,d11042021,l6WpQ,memory_test,18.0,0.0,1.0,45.0,47.0,0.0,61.0,47.0,,,0,-0.8211675217052746,
51,Exp1,d11042021,l6WpQ,memory_test,19.0,1.0,0.0,46.0,19.0,0.0,406.0,,,,1,-0.40333605009047846,
52,Exp1,d11042021,l6WpQ,memory_test,20.0,1.0,0.0,26.0,57.0,0.0,338.0,,,,1,-0.4856912386986122,
53,Exp1,d11042021,l6WpQ,memory_test,21.0,1.0,1.0,36.0,12.0,0.0,357.0,36.0,,,0,-0.46268023011692777,
54,Exp1,d11042021,l6WpQ,memory_test,22.0,0.0,1.0,7.0,43.0,0.0,333.0,43.0,,,0,-0.4917467672727397,
55,Exp1,d11042021,l6WpQ,memory_test,23.0,0.0,0.0,6.0,47.0,0.0,448.0,,,,1,-0.35246961006780764,
56,Exp1,d11042021,l6WpQ,memory_test,24.0,0.0,0.0,38.0,7.0,0.0,760.0,,,,1,0.02539537295774712,
57,Exp1,d11042021,l6WpQ,memory_test,25.0,0.0,1.0,42.0,55.0,0.0,308.0,55.0,,,0,-0.5220244101433771,
58,Exp1,d11042021,l6WpQ,memory_test,26.0,1.0,1.0,26.0,19.0,0.0,417.0,19.0,,,0,-0.390013887227398,
59,Exp1,d11042021,l6WpQ,memory_test,27.0,0.0,1.0,38.0,50.0,0.0,324.0,38.0,,,0,-0.5026467187061692,
60,Exp1,d11042021,l6WpQ,memory_test,28.0,1.0,1.0,9.0,20.0,0.0,292.0,20.0,,,0,-0.541402101580585,
61,Exp1,d11042021,l6WpQ,memory_test,29.0,1.0,0.0,23.0,29.0,0.0,252.0,,,,1,-0.5898463301736049,
62,Exp1,d11042021,l6WpQ,memory_test,30.0,0.0,1.0,0.0,51.0,0.0,270.0,0.0,,,0,-0.5680464273067459,
63,Exp1,d11042021,l6WpQ,memory_test,31.0,1.0,1.0,1.0,29.0,0.0,257.0,1.0,,,0,-0.5837908015994774,
64,Exp1,d11032021,GCq3m,memory_test,0.0,0.0,0.0,35.0,48.0,1.0,2873.0,,0.0,3663.0,0,3.7471519134047258,4.642848468995099
65,Exp1,d11032021,GCq3m,memory_test,1.0,0.0,0.0,36.0,34.0,1.0,2379.0,,0.0,569.0,0,2.801419923637157,-0.13393203248327368
66,Exp1,d11032021,GCq3m,memory_test,2.0,1.0,1.0,21.0,10.0,1.0,1373.0,10.0,0.0,388.0,1,0.8754960740295169,-0.4133752357048591
67,Exp1,d11032021,GCq3m,memory_test,3.0,0.0,0.0,46.0,53.0,0.0,1111.0,,,,1,0.37391352075198037,
68,Exp1,d11032021,GCq3m,memory_test,4.0,0.0,1.0,40.0,3.0,1.0,1212.0,3.0,0.0,448.0,1,0.5672716806032444,-0.32074212966455456
69,Exp1,d11032021,GCq3m,memory_test,5.0,1.0,1.0,59.0,13.0,1.0,1032.0,59.0,1.0,361.0,1,0.22267297987821932,-0.45506013342299617
70,Exp1,d11032021,GCq3m,memory_test,6.0,1.0,0.0,13.0,56.0,1.0,614.0,,0.0,1586.0,0,-0.5775617806943389,1.4361991148998887
71,Exp1,d11032021,GCq3m,memory_test,7.0,1.0,0.0,59.0,11.0,1.0,682.0,,1.0,429.0,0,-0.44738004930932945,-0.35007594657731766
72,Exp1,d11032021,GCq3m,memory_test,8.0,0.0,1.0,48.0,46.0,1.0,483.0,46.0,0.0,611.0,1,-0.8283530573331072,-0.06908885825506049
73,Exp1,d11032021,GCq3m,memory_test,9.0,1.0,1.0,27.0,28.0,0.0,1321.0,27.0,,,0,0.7759453382645096,
74,Exp1,d11032021,GCq3m,memory_test,10.0,0.0,1.0,35.0,36.0,1.0,982.0,35.0,1.0,347.0,1,0.12695111856571237,-0.4766745248324006
75,Exp1,d11032021,GCq3m,memory_test,11.0,1.0,0.0,33.0,43.0,1.0,429.0,,1.0,488.0,0,-0.9317326675506147,-0.2589867256376848
76,Exp1,d11032021,GCq3m,memory_test,12.0,0.0,0.0,41.0,40.0,1.0,645.0,,1.0,407.0,0,-0.5182142266805846,-0.384041418792096
77,Exp1,d11032021,GCq3m,memory_test,13.0,1.0,0.0,28.0,26.0,0.0,782.0,,,,1,-0.2559363266843155,
78,Exp1,d11032021,GCq3m,memory_test,14.0,1.0,0.0,27.0,21.0,1.0,1222.0,,1.0,846.0,0,0.5864160528657458,0.29372414040279904
79,Exp1,d11032021,GCq3m,memory_test,15.0,1.0,1.0,42.0,33.0,1.0,813.0,33.0,1.0,640.0,1,-0.19658877267056118,-0.024316190335579947
80,Exp1,d11032021,GCq3m,memory_test,16.0,1.0,1.0,43.0,50.0,1.0,709.0,50.0,0.0,728.0,1,-0.3956902442005757,0.11154569852353341
81,Exp1,d11032021,GCq3m,memory_test,17.0,1.0,1.0,56.0,12.0,1.0,395.0,56.0,1.0,599.0,1,-0.9968235332431195,-0.0876154794631214
82,Exp1,d11032021,GCq3m,memory_test,18.0,0.0,0.0,25.0,3.0,1.0,583.0,,0.0,398.0,0,-0.6369093347080932,-0.3979363846981417
83,Exp1,d11032021,GCq3m,memory_test,19.0,0.0,1.0,14.0,25.0,1.0,903.0,14.0,1.0,407.0,1,-0.024289422308048644,-0.384041418792096
84,Exp1,d11032021,GCq3m,memory_test,20.0,1.0,1.0,17.0,11.0,1.0,1232.0,17.0,1.0,310.0,1,0.6055604251282473,-0.5337982735572551
85,Exp1,d11032021,GCq3m,memory_test,21.0,0.0,1.0,47.0,1.0,1.0,612.0,1.0,0.0,1118.0,1,-0.5813906551468392,0.7136608877855131
86,Exp1,d11032021,GCq3m,memory_test,22.0,0.0,1.0,41.0,4.0,1.0,564.0,41.0,1.0,358.0,1,-0.6732836420068459,-0.45969178872501143
87,Exp1,d11032021,GCq3m,memory_test,23.0,0.0,0.0,5.0,47.0,1.0,831.0,,1.0,349.0,0,-0.16212890259805868,-0.4735867546310571
88,Exp1,d11032021,GCq3m,memory_test,24.0,0.0,1.0,51.0,34.0,1.0,802.0,34.0,0.0,419.0,1,-0.2176475821593127,-0.3655147975840351
89,Exp1,d11032021,GCq3m,memory_test,25.0,1.0,0.0,10.0,42.0,1.0,661.0,,1.0,491.0,0,-0.4875832310605824,-0.2543550703356696
90,Exp1,d11032021,GCq3m,memory_test,26.0,0.0,0.0,4.0,1.0,1.0,671.0,,0.0,649.0,0,-0.468438858798081,-0.010421224429534264
91,Exp1,d11032021,GCq3m,memory_test,27.0,1.0,0.0,22.0,17.0,0.0,777.0,,,,1,-0.2655085128155662,
92,Exp1,d11032021,GCq3m,memory_test,28.0,1.0,1.0,26.0,22.0,1.0,775.0,26.0,1.0,360.0,1,-0.2693373872680665,-0.45660401852366794
93,Exp1,d11032021,GCq3m,memory_test,29.0,0.0,1.0,53.0,5.0,1.0,625.0,5.0,0.0,457.0,1,-0.5565029712055873,-0.3068471637585089
94,Exp1,d11032021,GCq3m,memory_test,30.0,1.0,0.0,12.0,50.0,1.0,586.0,,0.0,455.0,0,-0.6311660230293428,-0.30993493395985233
95,Exp1,d11032021,GCq3m,memory_test,31.0,0.0,0.0,51.0,14.0,1.0,623.0,,0.0,480.0,0,-0.5603318456580877,-0.27133780644305877
96,Exp1,d11032021,qBGkp,memory_test,0.0,1.0,0.0,54.0,14.0,0.0,6035.0,,,,1,2.9774680383166867,
97,Exp1,d11032021,qBGkp,memory_test,1.0,0.0,1.0,40.0,16.0,0.0,2627.0,16.0,,,0,0.05656675029617195,
98,Exp1,d11032021,qBGkp,memory_test,2.0,0.0,0.0,1.0,11.0,0.0,1539.0,,,,1,-0.8759275576164807,
99,Exp1,d11032021,qBGkp,memory_test,3.0,1.0,0.0,8.0,59.0,0.0,1294.0,,,,1,-1.0859101912916644,
100,Exp1,d11032021,qBGkp,memory_test,4.0,0.0,0.0,31.0,49.0,0.0,3387.0,,,,1,0.7079414506763337,
101,Exp1,d11032021,qBGkp,memory_test,5.0,0.0,0.0,0.0,24.0,1.0,4020.0,,0.0,1736.0,0,1.2504680103350738,1.1137818947543756
102,Exp1,d11032021,qBGkp,memory_test,6.0,0.0,0.0,5.0,4.0,0.0,2853.0,,,,1,0.2502650164618516,
103,Exp1,d11032021,qBGkp,memory_test,7.0,1.0,1.0,28.0,33.0,0.0,1702.0,33.0,,,0,-0.7362248258244197,
104,Exp1,d11032021,qBGkp,memory_test,8.0,1.0,0.0,45.0,53.0,0.0,3021.0,,,,1,0.3942531081248348,
105,Exp1,d11032021,qBGkp,memory_test,9.0,1.0,0.0,27.0,33.0,0.0,1712.0,,,,1,-0.7276541060825754,
106,Exp1,d11032021,qBGkp,memory_test,10.0,0.0,1.0,49.0,0.0,1.0,2544.0,49.0,1.0,1577.0,1,-0.014570223561135198,0.8205357923103522
107,Exp1,d11032021,qBGkp,memory_test,11.0,0.0,1.0,17.0,18.0,1.0,3147.0,17.0,1.0,947.0,1,0.5022441768720721,-0.34138272680747606
108,Exp1,d11032021,qBGkp,memory_test,12.0,0.0,0.0,17.0,40.0,0.0,1608.0,,,,1,-0.8167895913977555,
109,Exp1,d11032021,qBGkp,memory_test,13.0,1.0,1.0,41.0,44.0,0.0,2058.0,41.0,,,0,-0.43110720301476496,
110,Exp1,d11032021,qBGkp,memory_test,14.0,1.0,0.0,7.0,20.0,1.0,2210.0,,1.0,968.0,0,-0.3008322629387326,-0.3026521095035484
111,Exp1,d11032021,qBGkp,memory_test,15.0,1.0,0.0,28.0,34.0,0.0,1179.0,,,,1,-1.184473468322873,
112,Exp1,d11032021,qBGkp,memory_test,16.0,0.0,0.0,10.0,12.0,0.0,2268.0,,,,1,-0.25112208843603606,
113,Exp1,d11032021,qBGkp,memory_test,17.0,1.0,1.0,8.0,54.0,0.0,4429.0,8.0,,,0,1.6010104477765028,
114,Exp1,d11032021,qBGkp,memory_test,18.0,1.0,1.0,34.0,59.0,0.0,3136.0,34.0,,,0,0.4928163851560434,
115,Exp1,d11032021,qBGkp,memory_test,19.0,1.0,1.0,27.0,36.0,0.0,1337.0,36.0,,,0,-1.0490560964017341,
116,Exp1,d11032021,qBGkp,memory_test,20.0,0.0,1.0,1.0,37.0,1.0,2175.0,1.0,1.0,751.0,1,-0.3308297820351874,-0.7028684883108004
117,Exp1,d11032021,qBGkp,memory_test,21.0,0.0,1.0,10.0,4.0,1.0,2704.0,10.0,1.0,562.0,1,0.12256129230837254,-1.051444044046149
118,Exp1,d11032021,qBGkp,memory_test,22.0,1.0,0.0,41.0,15.0,0.0,2006.0,,,,1,-0.47567494567235497,
119,Exp1,d11032021,qBGkp,memory_test,23.0,0.0,0.0,37.0,16.0,1.0,3810.0,,0.0,1843.0,0,1.0704828957563448,1.3111236114934353
120,Exp1,d11032021,qBGkp,memory_test,24.0,1.0,1.0,14.0,45.0,1.0,4459.0,14.0,1.0,439.0,1,1.6267226070020355,-1.278294802540582
121,Exp1,d11032021,qBGkp,memory_test,25.0,1.0,1.0,20.0,53.0,0.0,1793.0,53.0,,,0,-0.6582312761736372,
122,Exp1,d11032021,qBGkp,memory_test,26.0,0.0,1.0,32.0,12.0,1.0,4446.0,32.0,1.0,730.0,1,1.6155806713376382,-0.7415991056147281
123,Exp1,d11032021,qBGkp,memory_test,27.0,1.0,0.0,36.0,44.0,0.0,1387.0,,,,1,-1.006202497692513,
124,Exp1,d11032021,qBGkp,memory_test,28.0,0.0,0.0,18.0,32.0,0.0,1484.0,,,,1,-0.9230665161966239,
125,Exp1,d11032021,qBGkp,memory_test,29.0,0.0,1.0,24.0,11.0,0.0,1997.0,24.0,,,0,-0.4833885934400148,
126,Exp1,d11032021,qBGkp,memory_test,30.0,0.0,1.0,31.0,5.0,1.0,2066.0,5.0,0.0,1768.0,1,-0.4242506272212896,1.1727999782651224
127,Exp1,d11032021,qBGkp,memory_test,31.0,1.0,1.0,7.0,15.0,0.0,1519.0,7.0,,,0,-0.8930689971001692,
128,Exp1,d11032021,BcmPt,memory_test,0.0,0.0,1.0,22.0,2.0,1.0,9066.0,2.0,0.0,2414.0,1,2.3488894739649457,3.1928570631735713
129,Exp1,d11032021,BcmPt,memory_test,1.0,0.0,1.0,42.0,40.0,0.0,3209.0,42.0,,,0,0.2015533598645536,
130,Exp1,d11032021,BcmPt,memory_test,2.0,1.0,1.0,51.0,49.0,0.0,3077.0,49.0,,,0,0.15315855585887633,
131,Exp1,d11032021,BcmPt,memory_test,3.0,1.0,0.0,4.0,49.0,0.0,2791.0,,,,1,0.04830314717990894,
132,Exp1,d11032021,BcmPt,memory_test,4.0,1.0,1.0,9.0,56.0,0.0,2630.0,56.0,,,0,-0.010723848614894393,
133,Exp1,d11032021,BcmPt,memory_test,5.0,1.0,1.0,16.0,31.0,1.0,1455.0,16.0,1.0,998.0,1,-0.4415109297260367,0.5152352953114543
134,Exp1,d11032021,BcmPt,memory_test,6.0,0.0,1.0,8.0,15.0,1.0,1424.0,15.0,0.0,989.0,1,-0.45287637612130943,0.4982165128886018
135,Exp1,d11032021,BcmPt,memory_test,7.0,1.0,1.0,13.0,50.0,1.0,1888.0,13.0,1.0,852.0,1,-0.2827613074952924,0.23915282489629247
136,Exp1,d11032021,BcmPt,memory_test,8.0,1.0,1.0,27.0,34.0,0.0,2927.0,27.0,,,0,0.09816446039787945,
137,Exp1,d11032021,BcmPt,memory_test,9.0,0.0,0.0,15.0,5.0,1.0,991.0,,1.0,456.0,0,-0.6116259983520538,-0.5096736017092148
138,Exp1,d11032021,BcmPt,memory_test,10.0,0.0,1.0,53.0,24.0,1.0,825.0,24.0,0.0,871.0,1,-0.6724861306622236,0.2750813655667587
139,Exp1,d11032021,BcmPt,memory_test,11.0,0.0,0.0,22.0,29.0,1.0,1426.0,,0.0,393.0,0,-0.4521431215151628,-0.6288050786691819
140,Exp1,d11032021,BcmPt,memory_test,12.0,0.0,1.0,17.0,1.0,1.0,2568.0,1.0,0.0,291.0,1,-0.033454741405439775,-0.8216846127948428
141,Exp1,d11032021,BcmPt,memory_test,13.0,0.0,0.0,17.0,2.0,1.0,1309.0,,0.0,214.0,0,-0.49503851597474036,-0.9672897513014692
142,Exp1,d11032021,BcmPt,memory_test,14.0,1.0,1.0,46.0,36.0,0.0,1649.0,46.0,,,0,-0.37038523292981407,
143,Exp1,d11032021,BcmPt,memory_test,15.0,0.0,0.0,1.0,53.0,0.0,2087.0,,,,1,-0.20980247418370315,
144,Exp1,d11032021,BcmPt,memory_test,16.0,1.0,0.0,13.0,31.0,0.0,1686.0,,,,1,-0.3568200227161015,
145,Exp1,d11032021,BcmPt,memory_test,17.0,1.0,0.0,34.0,56.0,0.0,3029.0,,,,1,0.13556044531135733,
146,Exp1,d11032021,BcmPt,memory_test,18.0,1.0,0.0,9.0,23.0,0.0,2043.0,,,,1,-0.2259340755189289,
147,Exp1,d11032021,BcmPt,memory_test,19.0,1.0,0.0,57.0,50.0,1.0,1020.0,,1.0,792.0,0,-0.6009938065629277,0.12569427541060957
148,Exp1,d11032021,BcmPt,memory_test,20.0,0.0,0.0,35.0,42.0,1.0,861.0,,0.0,697.0,0,-0.6592875477515844,-0.05394842794172173
149,Exp1,d11032021,BcmPt,memory_test,21.0,0.0,1.0,14.0,59.0,1.0,1487.0,59.0,0.0,358.0,1,-0.4297788560276907,-0.6949892325358302
150,Exp1,d11032021,BcmPt,memory_test,22.0,0.0,0.0,40.0,59.0,0.0,1691.0,,,,1,-0.35498688620073493,
151,Exp1,d11032021,BcmPt,memory_test,23.0,0.0,0.0,19.0,14.0,0.0,2488.0,,,,1,-0.06278492565130478,
152,Exp1,d11032021,BcmPt,memory_test,24.0,0.0,1.0,5.0,19.0,0.0,4240.0,19.0,,,0,0.5795461093331389,
153,Exp1,d11032021,BcmPt,memory_test,25.0,0.0,0.0,24.0,8.0,1.0,4253.0,,1.0,378.0,0,0.584312264273092,-0.6571697160406026
154,Exp1,d11032021,BcmPt,memory_test,26.0,1.0,0.0,46.0,44.0,0.0,3761.0,,,,1,0.40393163116102215,
155,Exp1,d11032021,BcmPt,memory_test,27.0,1.0,1.0,4.0,23.0,1.0,1883.0,23.0,1.0,647.0,1,-0.2845944440106589,-0.14849721917979083
156,Exp1,d11032021,BcmPt,memory_test,28.0,1.0,0.0,27.0,36.0,0.0,14793.0,,,,1,4.448564038665807,
157,Exp1,d11032021,BcmPt,memory_test,29.0,1.0,1.0,44.0,57.0,1.0,1599.0,57.0,0.0,329.0,1,-0.3887165980834797,-0.7498275314539103
158,Exp1,d11032021,BcmPt,memory_test,30.0,0.0,1.0,35.0,29.0,1.0,667.0,29.0,0.0,401.0,1,-0.7304132445478071,-0.6136772720710908
159,Exp1,d11032021,BcmPt,memory_test,31.0,1.0,0.0,51.0,16.0,1.0,273.0,,1.0,1254.0,0,-0.8748644019586922,0.9993251064503681
160,Exp1,d11032021,8gPGn,memory_test,0.0,1.0,0.0,21.0,29.0,0.0,2701.0,,,,1,-0.46122537426532934,
161,Exp1,d11032021,8gPGn,memory_test,1.0,1.0,0.0,20.0,38.0,1.0,2396.0,,0.0,3375.0,0,-0.7983450966370521,2.23622063954512
162,Exp1,d11032021,8gPGn,memory_test,2.0,1.0,1.0,28.0,8.0,0.0,3613.0,28.0,,,0,0.5468178611543795,
163,Exp1,d11032021,8gPGn,memory_test,3.0,0.0,0.0,54.0,10.0,0.0,3929.0,,,,1,0.8960959997427873,
164,Exp1,d11032021,8gPGn,memory_test,4.0,1.0,1.0,20.0,21.0,1.0,2968.0,21.0,0.0,3172.0,1,-0.16610745336942775,1.9982342423615889
165,Exp1,d11032021,8gPGn,memory_test,5.0,0.0,1.0,1.0,24.0,0.0,3376.0,24.0,,,0,0.28485925721307354,
166,Exp1,d11032021,8gPGn,memory_test,6.0,1.0,0.0,6.0,26.0,1.0,3775.0,,1.0,2137.0,0,0.7258781727091961,0.7848553207608278
167,Exp1,d11032021,8gPGn,memory_test,7.0,1.0,0.0,15.0,8.0,0.0,3919.0,,,,1,0.8850428940912554,
168,Exp1,d11032021,8gPGn,memory_test,8.0,1.0,1.0,29.0,6.0,1.0,4037.0,6.0,0.0,2599.0,1,1.0154695407793317,1.3264795350405878
169,Exp1,d11032021,8gPGn,memory_test,9.0,0.0,0.0,33.0,35.0,0.0,3520.0,,,,1,0.4440239785951328,
170,Exp1,d11032021,8gPGn,memory_test,10.0,1.0,0.0,28.0,53.0,0.0,1765.0,,,,1,-1.4957960632487146,
171,Exp1,d11032021,8gPGn,memory_test,11.0,1.0,1.0,2.0,15.0,1.0,3497.0,15.0,0.0,1703.0,1,0.41860183559660946,0.27605681643741686
172,Exp1,d11032021,8gPGn,memory_test,12.0,1.0,1.0,53.0,14.0,0.0,1821.0,14.0,,,0,-1.433898671600136,
173,Exp1,d11032021,8gPGn,memory_test,13.0,0.0,0.0,5.0,1.0,1.0,2862.0,,1.0,1342.0,0,-0.28327037327566584,-0.1471603726426553
174,Exp1,d11032021,8gPGn,memory_test,14.0,1.0,1.0,27.0,26.0,1.0,5489.0,27.0,1.0,1233.0,1,2.620380481381763,-0.2749461721155857
175,Exp1,d11032021,8gPGn,memory_test,15.0,1.0,1.0,38.0,11.0,0.0,2294.0,38.0,,,0,-0.9110867742826774,
176,Exp1,d11032021,8gPGn,memory_test,16.0,0.0,1.0,57.0,3.0,1.0,2830.0,3.0,0.0,1369.0,1,-0.31864031136056786,-0.11550700947046154
177,Exp1,d11032021,8gPGn,memory_test,17.0,1.0,1.0,43.0,16.0,1.0,2015.0,43.0,1.0,664.0,1,-1.2194684219604173,-0.9420114922999654
178,Exp1,d11032021,8gPGn,memory_test,18.0,0.0,1.0,35.0,34.0,1.0,1983.0,35.0,1.0,1701.0,1,-1.2548383600453192,0.27371212286910623
179,Exp1,d11032021,8gPGn,memory_test,19.0,0.0,1.0,12.0,55.0,1.0,3140.0,55.0,0.0,866.0,1,0.024005963836920833,-0.7051974419005899
180,Exp1,d11032021,8gPGn,memory_test,20.0,0.0,1.0,22.0,5.0,1.0,2772.0,5.0,0.0,971.0,1,-0.38274832413945287,-0.5821010295642808
181,Exp1,d11032021,8gPGn,memory_test,21.0,1.0,0.0,2.0,27.0,1.0,2645.0,,0.0,661.0,0,-0.5231227659139079,-0.9455285326524314
182,Exp1,d11032021,8gPGn,memory_test,22.0,1.0,0.0,16.0,14.0,0.0,4086.0,,,,1,1.069629758471838,
183,Exp1,d11032021,8gPGn,memory_test,23.0,1.0,0.0,11.0,43.0,0.0,3031.0,,,,1,-0.09647288776477682,
184,Exp1,d11032021,8gPGn,memory_test,24.0,0.0,1.0,33.0,42.0,1.0,2398.0,42.0,0.0,698.0,1,-0.7961344755067458,-0.9021517016386844
185,Exp1,d11032021,8gPGn,memory_test,25.0,0.0,0.0,24.0,34.0,0.0,3494.0,,,,1,0.4152859039011499,
186,Exp1,d11032021,8gPGn,memory_test,26.0,0.0,0.0,41.0,55.0,1.0,3469.0,,0.0,553.0,0,0.38765313977232013,-1.0721419853412064
187,Exp1,d11032021,8gPGn,memory_test,27.0,0.0,0.0,57.0,40.0,1.0,3083.0,,0.0,1508.0,0,-0.03899673837681097,0.04744919352712858
188,Exp1,d11032021,8gPGn,memory_test,28.0,0.0,1.0,41.0,54.0,1.0,2699.0,54.0,0.0,1887.0,1,-0.4634359953956357,0.4917686247219966
189,Exp1,d11032021,8gPGn,memory_test,29.0,0.0,0.0,42.0,12.0,0.0,2806.0,,,,1,-0.34516776492424445,
190,Exp1,d11032021,8gPGn,memory_test,30.0,0.0,0.0,22.0,3.0,1.0,1953.0,,0.0,645.0,0,-1.287997676999915,-0.9642860811989166
191,Exp1,d11032021,8gPGn,memory_test,31.0,0.0,1.0,10.0,40.0,1.0,5419.0,40.0,0.0,799.0,1,2.5430087418210396,-0.7837446764389966
192,Exp1,d11042021,339Ys,memory_test,0.0,1.0,0.0,35.0,1.0,1.0,2685.0,,0.0,2811.0,0,0.6050172397778174,3.625543634277057
193,Exp1,d11042021,339Ys,memory_test,1.0,0.0,0.0,32.0,45.0,0.0,2669.0,,,,1,0.5771953584444024,
194,Exp1,d11042021,339Ys,memory_test,2.0,1.0,1.0,55.0,16.0,1.0,2746.0,55.0,1.0,1160.0,1,0.7110881623614621,0.6529699510169571
195,Exp1,d11042021,339Ys,memory_test,3.0,0.0,1.0,12.0,17.0,1.0,2284.0,12.0,1.0,922.0,1,-0.09226866114089581,0.22445842066207897
196,Exp1,d11042021,339Ys,memory_test,4.0,0.0,0.0,29.0,48.0,1.0,3089.0,,1.0,1309.0,0,1.307519743446546,0.9212397746424901
197,Exp1,d11042021,339Ys,memory_test,5.0,0.0,0.0,0.0,43.0,0.0,2262.0,,,,1,-0.13052374797434144,
198,Exp1,d11042021,339Ys,memory_test,6.0,1.0,0.0,22.0,8.0,1.0,2639.0,,1.0,1441.0,0,0.5250293309442493,1.1589016318141032
199,Exp1,d11042021,339Ys,memory_test,7.0,0.0,1.0,10.0,59.0,1.0,1703.0,59.0,0.0,667.0,1,-1.1025507270605277,-0.23466107614671908
200,Exp1,d11042021,339Ys,memory_test,8.0,0.0,1.0,42.0,32.0,1.0,2408.0,32.0,1.0,593.0,1,0.12335091919307037,-0.3678957536520173
201,Exp1,d11042021,339Ys,memory_test,9.0,0.0,1.0,29.0,4.0,1.0,2419.0,29.0,1.0,461.0,1,0.1424784626097932,-0.6055576108236305
202,Exp1,d11042021,339Ys,memory_test,10.0,0.0,0.0,4.0,59.0,0.0,1623.0,,,,1,-1.2416601337276028,
203,Exp1,d11042021,339Ys,memory_test,11.0,1.0,0.0,7.0,56.0,1.0,3365.0,,1.0,681.0,0,1.7874471964479546,-0.20945451553760858
204,Exp1,d11042021,339Ys,memory_test,12.0,1.0,1.0,47.0,35.0,1.0,2080.0,47.0,1.0,287.0,1,-0.44699764814193693,-0.918839149822575
205,Exp1,d11042021,339Ys,memory_test,13.0,1.0,0.0,36.0,46.0,0.0,2340.0,,,,1,0.005107923526056659,
206,Exp1,d11042021,339Ys,memory_test,14.0,1.0,1.0,54.0,56.0,1.0,2133.0,54.0,1.0,295.0,1,-0.3548376662249998,-0.9044354009030833
207,Exp1,d11042021,339Ys,memory_test,15.0,0.0,1.0,0.0,27.0,1.0,1540.0,27.0,0.0,956.0,1,-1.385986143144693,0.2856743535699187
208,Exp1,d11042021,339Ys,memory_test,16.0,1.0,1.0,36.0,22.0,0.0,2650.0,22.0,,,0,0.5441568743609722,
209,Exp1,d11042021,339Ys,memory_test,17.0,1.0,0.0,54.0,57.0,1.0,3423.0,,1.0,361.0,0,1.888301516281584,-0.7856044723172767
210,Exp1,d11042021,339Ys,memory_test,18.0,0.0,1.0,43.0,44.0,1.0,2662.0,43.0,1.0,538.0,1,0.5650232853610334,-0.4669215274735228
211,Exp1,d11042021,339Ys,memory_test,19.0,1.0,1.0,9.0,46.0,1.0,1786.0,46.0,0.0,591.0,1,-0.9582247176434374,-0.37149669088189025
212,Exp1,d11042021,339Ys,memory_test,20.0,1.0,1.0,1.0,8.0,0.0,1717.0,1.0,,,0,-1.0782065808937895,
213,Exp1,d11042021,339Ys,memory_test,21.0,1.0,0.0,47.0,39.0,1.0,2846.0,,1.0,674.0,0,0.8849749206953058,-0.22205779584216384
214,Exp1,d11042021,339Ys,memory_test,22.0,1.0,0.0,16.0,13.0,1.0,1988.0,,0.0,706.0,0,-0.6069734658090732,-0.16444280016419702
215,Exp1,d11042021,339Ys,memory_test,23.0,1.0,1.0,57.0,13.0,1.0,2862.0,13.0,0.0,490.0,1,0.9127968020287208,-0.553344020990473
216,Exp1,d11042021,339Ys,memory_test,24.0,1.0,0.0,9.0,55.0,0.0,1658.0,,,,1,-1.1807997683107574,
217,Exp1,d11042021,339Ys,memory_test,25.0,1.0,1.0,39.0,7.0,1.0,1974.0,7.0,0.0,526.0,1,-0.6313176119758113,-0.48852715085276033
218,Exp1,d11042021,339Ys,memory_test,26.0,0.0,1.0,45.0,58.0,1.0,2590.0,58.0,0.0,525.0,1,0.4398248193606659,-0.4903276194676968
219,Exp1,d11042021,339Ys,memory_test,27.0,0.0,0.0,17.0,53.0,0.0,3369.0,,,,1,1.7944026667813082,
220,Exp1,d11042021,339Ys,memory_test,28.0,0.0,1.0,53.0,48.0,1.0,1960.0,53.0,1.0,750.0,1,-0.6556617581425493,-0.08522218110699264
221,Exp1,d11042021,339Ys,memory_test,29.0,0.0,0.0,27.0,42.0,0.0,1055.0,,,,1,-2.229336921063835,
222,Exp1,d11042021,339Ys,memory_test,30.0,0.0,0.0,10.0,58.0,0.0,1861.0,,,,1,-0.8278096488930546,
223,Exp1,d11042021,339Ys,memory_test,31.0,0.0,0.0,12.0,44.0,0.0,2400.0,,,,1,0.10943997852636288,
224,Exp1,d11032021,JY6WO,memory_test,0.0,0.0,0.0,52.0,51.0,1.0,1033.0,,1.0,2493.0,0,-0.7637620153310246,0.9806372422863516
225,Exp1,d11032021,JY6WO,memory_test,1.0,1.0,1.0,53.0,40.0,1.0,2029.0,40.0,0.0,1854.0,1,-0.053069998729646115,0.45993949286357005
226,Exp1,d11032021,JY6WO,memory_test,2.0,1.0,1.0,41.0,42.0,1.0,899.0,41.0,1.0,994.0,1,-0.8593772063195635,-0.24084308069447713
227,Exp1,d11032021,JY6WO,memory_test,3.0,1.0,1.0,13.0,46.0,1.0,739.0,13.0,1.0,573.0,1,-0.9735445985446846,-0.58390059635487
228,Exp1,d11032021,JY6WO,memory_test,4.0,0.0,1.0,35.0,27.0,1.0,659.0,27.0,0.0,483.0,1,-1.0306282946572451,-0.6572383075411773
229,Exp1,d11032021,JY6WO,memory_test,5.0,0.0,0.0,59.0,44.0,1.0,619.0,,0.0,444.0,0,-1.0591701427135254,-0.689017982388577
230,Exp1,d11032021,JY6WO,memory_test,6.0,0.0,1.0,30.0,44.0,1.0,1491.0,44.0,0.0,1294.0,1,-0.43695785508661567,0.003615956593213761
231,Exp1,d11032021,JY6WO,memory_test,7.0,0.0,0.0,2.0,7.0,0.0,4650.0,,,,1,1.8171345951581181,
232,Exp1,d11032021,JY6WO,memory_test,8.0,1.0,1.0,36.0,26.0,1.0,6450.0,36.0,1.0,5213.0,1,3.10151775769073,3.197065847028082
233,Exp1,d11032021,JY6WO,memory_test,9.0,0.0,1.0,28.0,51.0,1.0,2310.0,28.0,1.0,773.0,1,0.14743648386572272,-0.42092790482974274
234,Exp1,d11032021,JY6WO,memory_test,10.0,0.0,0.0,30.0,45.0,0.0,1921.0,,,,1,-0.13013298848160282,
235,Exp1,d11032021,JY6WO,memory_test,11.0,1.0,1.0,54.0,16.0,1.0,1861.0,54.0,1.0,673.0,1,-0.1729457605660232,-0.5024142505923064
236,Exp1,d11032021,JY6WO,memory_test,12.0,0.0,1.0,45.0,1.0,1.0,4090.0,45.0,1.0,1713.0,1,1.4175487223701944,0.34504374533835536
237,Exp1,d11032021,JY6WO,memory_test,13.0,0.0,0.0,32.0,55.0,1.0,2130.0,,1.0,553.0,0,0.01899816761246155,-0.6001978655073827
238,Exp1,d11032021,JY6WO,memory_test,14.0,1.0,1.0,6.0,22.0,0.0,2039.0,22.0,,,0,-0.04593453671557605,
239,Exp1,d11032021,JY6WO,memory_test,15.0,0.0,1.0,52.0,55.0,1.0,3851.0,52.0,1.0,492.0,1,1.2470111802339199,-0.6499045364225465
240,Exp1,d11032021,JY6WO,memory_test,16.0,0.0,1.0,5.0,7.0,1.0,2299.0,7.0,0.0,1914.0,1,0.13958747565024565,0.5088313003211082
241,Exp1,d11032021,JY6WO,memory_test,17.0,1.0,0.0,26.0,40.0,0.0,1350.0,,,,1,-0.5375678694850036,
242,Exp1,d11032021,JY6WO,memory_test,18.0,1.0,0.0,16.0,41.0,0.0,941.0,,,,1,-0.8294082658604692,
243,Exp1,d11032021,JY6WO,memory_test,19.0,1.0,1.0,12.0,31.0,1.0,2598.0,31.0,0.0,773.0,1,0.3529377898709406,-0.42092790482974274
244,Exp1,d11032021,JY6WO,memory_test,20.0,1.0,0.0,53.0,22.0,0.0,1780.0,,,,1,-0.23074300287999075,
245,Exp1,d11032021,JY6WO,memory_test,21.0,1.0,0.0,54.0,9.0,0.0,2041.0,,,,1,-0.04450744431276203,
246,Exp1,d11032021,JY6WO,memory_test,22.0,1.0,0.0,36.0,46.0,0.0,1830.0,,,,1,-0.19506569280964042,
247,Exp1,d11032021,JY6WO,memory_test,23.0,1.0,0.0,19.0,12.0,1.0,2100.0,,1.0,394.0,0,-0.002408218429748647,-0.7297611552698589
248,Exp1,d11032021,JY6WO,memory_test,24.0,1.0,1.0,9.0,19.0,0.0,4848.0,19.0,,,0,1.9584167430367054,
249,Exp1,d11032021,JY6WO,memory_test,25.0,0.0,1.0,32.0,2.0,0.0,3948.0,32.0,,,0,1.3162251617703995,
250,Exp1,d11032021,JY6WO,memory_test,26.0,1.0,0.0,13.0,42.0,0.0,1439.0,,,,1,-0.47406225755978,
251,Exp1,d11032021,JY6WO,memory_test,27.0,0.0,0.0,27.0,1.0,0.0,1257.0,,,,1,-0.6039276662158551,
252,Exp1,d11032021,JY6WO,memory_test,28.0,0.0,1.0,59.0,58.0,0.0,980.0,58.0,,,0,-0.801579964005596,
253,Exp1,d11032021,JY6WO,memory_test,29.0,0.0,0.0,58.0,5.0,0.0,768.0,,,,1,-0.9528517587038814,
254,Exp1,d11032021,JY6WO,memory_test,30.0,1.0,0.0,6.0,31.0,0.0,1120.0,,,,1,-0.7016834958086151,
255,Exp1,d11032021,JY6WO,memory_test,31.0,0.0,0.0,35.0,28.0,0.0,1238.0,,,,1,-0.6174850440425883,
256,Exp1,d11032021,pxiIK,memory_test,0.0,0.0,0.0,16.0,13.0,0.0,3359.0,,,,1,0.19824746603112564,
257,Exp1,d11032021,pxiIK,memory_test,1.0,0.0,0.0,36.0,49.0,1.0,815.0,,1.0,3641.0,0,-0.13703724809917198,3.216681721764313
258,Exp1,d11032021,pxiIK,memory_test,2.0,1.0,0.0,54.0,21.0,1.0,2234.0,,1.0,1164.0,0,0.0499788719286945,0.5832033046797487
259,Exp1,d11032021,pxiIK,memory_test,3.0,1.0,1.0,28.0,59.0,1.0,1494.0,59.0,0.0,2328.0,1,-0.04754891441423799,1.8207361579241705
260,Exp1,d11032021,pxiIK,memory_test,4.0,0.0,1.0,13.0,9.0,0.0,1538.0,13.0,,,0,-0.04174996495600957,
261,Exp1,d11032021,pxiIK,memory_test,5.0,0.0,0.0,51.0,17.0,1.0,2705.0,,0.0,1614.0,0,0.11205398999291234,1.0616309541299118
262,Exp1,d11032021,pxiIK,memory_test,6.0,0.0,1.0,44.0,4.0,1.0,144.0,4.0,0.0,281.0,1,-0.22547122733715536,-0.35557806079690457
263,Exp1,d11032021,pxiIK,memory_test,7.0,1.0,1.0,29.0,35.0,1.0,212.0,29.0,0.0,13.0,1,-0.2165092145380751,-0.640508305358335
264,Exp1,d11032021,pxiIK,memory_test,8.0,0.0,1.0,17.0,55.0,1.0,92.0,17.0,0.0,307.0,1,-0.2323245312423344,-0.3279355743842285
265,Exp1,d11032021,pxiIK,memory_test,9.0,1.0,1.0,34.0,26.0,1.0,218.0,34.0,0.0,66.0,1,-0.2157184487028621,-0.5841601599786491
266,Exp1,d11032021,pxiIK,memory_test,10.0,1.0,1.0,45.0,41.0,1.0,19.0,45.0,0.0,378.0,1,-0.24194551557075883,-0.2524503230265361
267,Exp1,d11032021,pxiIK,memory_test,11.0,1.0,1.0,18.0,7.0,0.0,147.0,7.0,,,0,-0.22507584441954887,
268,Exp1,d11032021,pxiIK,memory_test,12.0,0.0,0.0,42.0,9.0,0.0,335.0,,,,1,-0.20029851491620929,
269,Exp1,d11032021,pxiIK,memory_test,13.0,1.0,1.0,54.0,40.0,0.0,39.0,54.0,,,0,-0.23930962945338227,
270,Exp1,d11032021,pxiIK,memory_test,14.0,1.0,0.0,59.0,41.0,0.0,32.0,,,,1,-0.24023218959446407,
271,Exp1,d11032021,pxiIK,memory_test,15.0,1.0,0.0,56.0,43.0,0.0,121.0,,,,1,-0.2285024963721384,
272,Exp1,d11032021,pxiIK,memory_test,16.0,0.0,1.0,51.0,36.0,1.0,186.0,36.0,0.0,52.0,1,-0.2199358664906646,-0.5990445757393209
273,Exp1,d11032021,pxiIK,memory_test,17.0,1.0,0.0,40.0,29.0,0.0,185.0,,,,1,-0.22006766079653342,
274,Exp1,d11032021,pxiIK,memory_test,18.0,1.0,1.0,43.0,21.0,0.0,279.0,43.0,,,0,-0.20767899604486362,
275,Exp1,d11032021,pxiIK,memory_test,19.0,0.0,0.0,38.0,48.0,0.0,234.0,,,,1,-0.21360973980896086,
276,Exp1,d11032021,pxiIK,memory_test,20.0,1.0,1.0,24.0,56.0,0.0,43186.0,24.0,,,0,5.4472192858689255,
277,Exp1,d11032021,pxiIK,memory_test,21.0,0.0,0.0,52.0,25.0,1.0,307.0,,1.0,848.0,0,-0.20398875548053644,0.24724077751030088
278,Exp1,d11032021,pxiIK,memory_test,22.0,1.0,0.0,7.0,35.0,1.0,138.0,,1.0,644.0,0,-0.22626199317236834,0.030353576426226964
279,Exp1,d11032021,pxiIK,memory_test,23.0,1.0,0.0,45.0,18.0,0.0,116.0,,,,1,-0.22916146790148254,
280,Exp1,d11032021,pxiIK,memory_test,24.0,0.0,1.0,49.0,48.0,1.0,142.0,48.0,1.0,488.0,1,-0.22573481594889303,-0.13550134204982955
281,Exp1,d11032021,pxiIK,memory_test,25.0,0.0,1.0,42.0,38.0,1.0,57.0,42.0,1.0,158.0,1,-0.23693733194774336,-0.48634828497994914
282,Exp1,d11032021,pxiIK,memory_test,26.0,1.0,0.0,26.0,24.0,1.0,156.0,,1.0,115.0,0,-0.22388969566672942,-0.5320647048162981
283,Exp1,d11032021,pxiIK,memory_test,27.0,0.0,0.0,19.0,44.0,1.0,219.0,,1.0,25.0,0,-0.2155866543969933,-0.6277502347063306
284,Exp1,d11032021,pxiIK,memory_test,28.0,0.0,1.0,16.0,52.0,1.0,424.0,52.0,1.0,109.0,1,-0.18856882169388361,-0.5384437401423002
285,Exp1,d11032021,pxiIK,memory_test,29.0,1.0,0.0,28.0,34.0,1.0,200.0,,0.0,36.0,0,-0.21809074620850102,-0.6160553366086601
286,Exp1,d11032021,pxiIK,memory_test,30.0,0.0,1.0,25.0,19.0,1.0,13.0,19.0,0.0,11.0,1,-0.24273628140597178,-0.6426346504670024
287,Exp1,d11032021,pxiIK,memory_test,31.0,0.0,0.0,55.0,4.0,1.0,7.0,,0.0,31.0,0,-0.24352704724118476,-0.6213711993803285
288,Exp1,d11032021,UiTO9,memory_test,0.0,1.0,1.0,6.0,4.0,1.0,7477.0,4.0,1.0,5980.0,1,2.7216953742848586,3.9103919801753912
289,Exp1,d11032021,UiTO9,memory_test,1.0,1.0,0.0,4.0,9.0,0.0,3401.0,,,,1,0.4322984849398739,
290,Exp1,d11032021,UiTO9,memory_test,2.0,0.0,1.0,16.0,13.0,1.0,3345.0,13.0,0.0,3729.0,1,0.40084455319224893,2.1046824293569193
291,Exp1,d11032021,UiTO9,memory_test,3.0,1.0,1.0,9.0,24.0,1.0,7109.0,24.0,1.0,1505.0,1,2.514998108514752,0.3206317669756301
292,Exp1,d11032021,UiTO9,memory_test,4.0,0.0,1.0,25.0,31.0,1.0,1766.0,25.0,1.0,744.0,1,-0.48604398662024634,-0.28982801453163654
293,Exp1,d11032021,UiTO9,memory_test,5.0,1.0,1.0,12.0,26.0,1.0,2254.0,12.0,1.0,446.0,1,-0.21194543853380068,-0.5288779683938777
294,Exp1,d11032021,UiTO9,memory_test,6.0,0.0,0.0,10.0,25.0,1.0,3062.0,,1.0,2147.0,0,0.2418898623962159,0.8356320031486462
295,Exp1,d11032021,UiTO9,memory_test,7.0,1.0,0.0,12.0,46.0,1.0,3193.0,,1.0,794.0,0,0.31546959559155274,-0.24971896187018672
296,Exp1,d11032021,UiTO9,memory_test,8.0,0.0,0.0,37.0,49.0,1.0,5038.0,,1.0,1558.0,0,1.3517643112052664,0.36314736279676696
297,Exp1,d11032021,UiTO9,memory_test,9.0,0.0,0.0,13.0,31.0,1.0,877.0,,1.0,1392.0,0,-0.9853751531137919,0.22998530796075345
298,Exp1,d11032021,UiTO9,memory_test,10.0,1.0,0.0,6.0,42.0,0.0,1917.0,,,,1,-0.40123070637218633,
299,Exp1,d11032021,UiTO9,memory_test,11.0,1.0,1.0,46.0,28.0,1.0,1564.0,28.0,0.0,471.0,1,-0.5995028118527505,-0.5088234420631528
300,Exp1,d11032021,UiTO9,memory_test,12.0,1.0,0.0,59.0,14.0,1.0,4703.0,,1.0,574.0,0,1.163602398072153,-0.42619879358056606
301,Exp1,d11032021,UiTO9,memory_test,13.0,0.0,1.0,18.0,37.0,1.0,2120.0,18.0,1.0,351.0,1,-0.287210203787046,-0.6050851684506323
302,Exp1,d11032021,UiTO9,memory_test,14.0,0.0,0.0,57.0,34.0,1.0,1205.0,,1.0,809.0,0,-0.8011449814491316,-0.23768624607175176
303,Exp1,d11032021,UiTO9,memory_test,15.0,0.0,0.0,18.0,17.0,1.0,2199.0,,1.0,835.0,0,-0.24283769292878943,-0.21682953868779783
304,Exp1,d11032021,UiTO9,memory_test,16.0,1.0,0.0,7.0,24.0,1.0,4868.0,,1.0,3439.0,0,1.2562791612571194,1.87204992392051
305,Exp1,d11032021,UiTO9,memory_test,17.0,1.0,1.0,42.0,15.0,1.0,958.0,42.0,1.0,425.0,1,-0.939879287550263,-0.5457237705116866
306,Exp1,d11032021,UiTO9,memory_test,18.0,0.0,1.0,47.0,57.0,1.0,435.0,57.0,0.0,500.0,1,-1.2336365429789742,-0.4855601915195118
307,Exp1,d11032021,UiTO9,memory_test,19.0,0.0,0.0,47.0,19.0,1.0,1312.0,,0.0,404.0,0,-0.7410455047170625,-0.5625695726294955
308,Exp1,d11032021,UiTO9,memory_test,20.0,1.0,1.0,14.0,8.0,1.0,4339.0,8.0,1.0,913.0,1,0.9591518417125912,-0.15425941653593608
309,Exp1,d11032021,UiTO9,memory_test,21.0,0.0,0.0,38.0,53.0,1.0,1901.0,,0.0,291.0,0,-0.41021754401436483,-0.6532160316443721
310,Exp1,d11032021,UiTO9,memory_test,22.0,1.0,0.0,27.0,28.0,1.0,2238.0,,1.0,797.0,0,-0.22093227617597921,-0.24731241871049972
311,Exp1,d11032021,UiTO9,memory_test,23.0,1.0,0.0,15.0,8.0,1.0,1278.0,,0.0,771.0,0,-0.760142534706692,-0.26816912609445365
312,Exp1,d11032021,UiTO9,memory_test,24.0,1.0,1.0,48.0,7.0,1.0,1568.0,48.0,1.0,656.0,1,-0.5972561024422058,-0.3604199472157883
313,Exp1,d11032021,UiTO9,memory_test,25.0,0.0,1.0,38.0,49.0,1.0,1136.0,49.0,1.0,427.0,1,-0.8399007187810266,-0.5441194084052285
314,Exp1,d11032021,UiTO9,memory_test,26.0,0.0,1.0,19.0,17.0,1.0,974.0,19.0,1.0,367.0,1,-0.9308924499080844,-0.5922502715989684
315,Exp1,d11032021,UiTO9,memory_test,27.0,1.0,1.0,27.0,59.0,1.0,2438.0,59.0,0.0,924.0,1,-0.1085968056487474,-0.1454354249504171
316,Exp1,d11032021,UiTO9,memory_test,28.0,0.0,0.0,43.0,16.0,1.0,1877.0,,1.0,378.0,0,-0.42369780047763267,-0.5834262800134494
317,Exp1,d11032021,UiTO9,memory_test,29.0,1.0,0.0,48.0,26.0,1.0,2084.0,,1.0,961.0,0,-0.3074305884819477,-0.11575472598094422
318,Exp1,d11032021,UiTO9,memory_test,30.0,0.0,1.0,10.0,53.0,1.0,4793.0,53.0,1.0,327.0,1,1.2141533598094074,-0.6243375137281283
319,Exp1,d11032021,UiTO9,memory_test,31.0,0.0,1.0,34.0,43.0,1.0,774.0,43.0,0.0,244.0,1,-1.0432279204353163,-0.690918541146135
320,Exp1,d11032021,MJ2Dl,memory_test,0.0,1.0,0.0,35.0,34.0,1.0,1798.0,,1.0,2875.0,0,0.6924592852638055,4.730212354611284
321,Exp1,d11032021,MJ2Dl,memory_test,1.0,0.0,1.0,19.0,38.0,0.0,4217.0,19.0,,,0,3.8836177274678096,
322,Exp1,d11032021,MJ2Dl,memory_test,2.0,1.0,0.0,36.0,26.0,1.0,1583.0,,0.0,311.0,0,0.40883007274877414,-0.18385307186765132
323,Exp1,d11032021,MJ2Dl,memory_test,3.0,0.0,1.0,8.0,55.0,1.0,842.0,8.0,1.0,398.0,1,-0.5687013061983804,-0.01711216231083876
324,Exp1,d11032021,MJ2Dl,memory_test,4.0,0.0,1.0,22.0,37.0,0.0,1032.0,37.0,,,0,-0.31805223467346905,
325,Exp1,d11032021,MJ2Dl,memory_test,5.0,1.0,1.0,21.0,36.0,1.0,2725.0,21.0,1.0,469.0,1,1.9153629131774523,0.11896375238495081
326,Exp1,d11032021,MJ2Dl,memory_test,6.0,0.0,0.0,38.0,41.0,1.0,623.0,,0.0,514.0,0,-0.857607341271831,0.205209050431578
327,Exp1,d11032021,MJ2Dl,memory_test,7.0,0.0,0.0,31.0,30.0,1.0,686.0,,1.0,212.0,0,-0.7744973859767288,-0.37359272757023115
328,Exp1,d11032021,MJ2Dl,memory_test,8.0,1.0,0.0,2.0,14.0,1.0,1860.0,,0.0,163.0,0,0.7742500349193029,-0.4675042743321141
329,Exp1,d11032021,MJ2Dl,memory_test,9.0,0.0,0.0,17.0,49.0,0.0,878.0,,,,1,-0.5212099031726077,
330,Exp1,d11032021,MJ2Dl,memory_test,10.0,0.0,0.0,24.0,48.0,1.0,1297.0,,0.0,800.0,0,0.03153725982180218,0.7533458335723642
331,Exp1,d11032021,MJ2Dl,memory_test,11.0,1.0,1.0,54.0,14.0,1.0,1580.0,54.0,0.0,241.0,1,0.40487245582995973,-0.31801242438462696
332,Exp1,d11032021,MJ2Dl,memory_test,12.0,0.0,0.0,25.0,37.0,1.0,792.0,,0.0,192.0,0,-0.6346615881786203,-0.4119239711465099
333,Exp1,d11032021,MJ2Dl,memory_test,13.0,0.0,0.0,22.0,58.0,1.0,548.0,,1.0,889.0,0,-0.9565477642421908,0.9239198674868045
334,Exp1,d11032021,MJ2Dl,memory_test,14.0,1.0,1.0,53.0,26.0,1.0,2091.0,26.0,0.0,408.0,1,1.078986537668011,0.0020534594773006162
335,Exp1,d11032021,MJ2Dl,memory_test,15.0,1.0,1.0,47.0,34.0,1.0,1018.0,47.0,1.0,199.0,1,-0.3365211136279362,-0.3985080358948123
336,Exp1,d11032021,MJ2Dl,memory_test,16.0,1.0,0.0,16.0,18.0,1.0,806.0,,1.0,295.0,0,-0.6161927092241531,-0.21451806672867432
337,Exp1,d11032021,MJ2Dl,memory_test,17.0,1.0,1.0,20.0,16.0,1.0,808.0,16.0,0.0,174.0,1,-0.6135542979449435,-0.4464220903651608
338,Exp1,d11032021,MJ2Dl,memory_test,18.0,0.0,0.0,52.0,8.0,1.0,680.0,,0.0,195.0,0,-0.7824126198143576,-0.4061742846100681
339,Exp1,d11032021,MJ2Dl,memory_test,19.0,0.0,1.0,58.0,52.0,1.0,1358.0,58.0,0.0,180.0,1,0.11200880383769479,-0.43492271729227716
340,Exp1,d11032021,MJ2Dl,memory_test,20.0,0.0,0.0,19.0,55.0,1.0,1115.0,,0.0,126.0,0,-0.20855816658627088,-0.5384170749482298
341,Exp1,d11032021,MJ2Dl,memory_test,21.0,1.0,0.0,42.0,40.0,1.0,879.0,,1.0,125.0,0,-0.519890697533003,-0.5403336371270437
342,Exp1,d11032021,MJ2Dl,memory_test,22.0,0.0,1.0,49.0,24.0,1.0,1221.0,24.0,1.0,152.0,1,-0.06872236878816239,-0.4885864582990674
343,Exp1,d11032021,MJ2Dl,memory_test,23.0,1.0,1.0,18.0,40.0,1.0,1981.0,40.0,1.0,73.0,1,0.9338739173114833,-0.6399948704253685
344,Exp1,d11032021,MJ2Dl,memory_test,24.0,1.0,1.0,42.0,35.0,1.0,735.0,35.0,1.0,304.0,1,-0.7098563096360937,-0.1972690071193489
345,Exp1,d11032021,MJ2Dl,memory_test,25.0,0.0,1.0,25.0,31.0,1.0,1023.0,31.0,0.0,247.0,1,-0.3299250854299122,-0.30651305131174333
346,Exp1,d11032021,MJ2Dl,memory_test,26.0,0.0,1.0,48.0,41.0,1.0,689.0,41.0,0.0,355.0,1,-0.7705397690579144,-0.09952433599983808
347,Exp1,d11032021,MJ2Dl,memory_test,27.0,1.0,0.0,20.0,21.0,1.0,723.0,,0.0,164.0,0,-0.7256867773113513,-0.46558771215330014
348,Exp1,d11032021,MJ2Dl,memory_test,28.0,0.0,1.0,17.0,30.0,0.0,2172.0,17.0,,,0,1.1858421944759996,
349,Exp1,d11032021,MJ2Dl,memory_test,29.0,1.0,1.0,12.0,2.0,1.0,920.0,2.0,1.0,296.0,1,-0.4658032663092063,-0.2126015045498604
350,Exp1,d11032021,MJ2Dl,memory_test,30.0,1.0,0.0,47.0,12.0,1.0,881.0,,1.0,520.0,0,-0.5172522862537934,0.21670842350446162
351,Exp1,d11032021,MJ2Dl,memory_test,31.0,1.0,0.0,53.0,54.0,1.0,1178.0,,1.0,517.0,0,-0.12544821129116868,0.2109587369680198
352,Exp1,d11032021,52UGI,memory_test,0.0,0.0,0.0,51.0,59.0,1.0,6186.0,,0.0,4303.0,0,4.319027722392469,2.42859576206008
353,Exp1,d11032021,52UGI,memory_test,1.0,1.0,1.0,26.0,1.0,0.0,3287.0,26.0,,,0,1.5111875324018276,
354,Exp1,d11032021,52UGI,memory_test,2.0,0.0,0.0,57.0,47.0,0.0,2430.0,,,,1,0.6811361205970744,
355,Exp1,d11032021,52UGI,memory_test,3.0,0.0,0.0,24.0,39.0,1.0,1041.0,,1.0,3399.0,0,-0.664186412654737,1.7589107893394964
356,Exp1,d11032021,52UGI,memory_test,4.0,0.0,1.0,30.0,53.0,1.0,2285.0,30.0,1.0,877.0,1,0.5406956833605642,-0.10939175623717498
357,Exp1,d11032021,52UGI,memory_test,5.0,1.0,1.0,4.0,9.0,0.0,2100.0,4.0,,,0,0.36151305654156846,
358,Exp1,d11032021,52UGI,memory_test,6.0,1.0,1.0,49.0,36.0,0.0,1878.0,49.0,,,0,0.14649390435877355,
359,Exp1,d11032021,52UGI,memory_test,7.0,0.0,1.0,57.0,41.0,1.0,1372.0,41.0,0.0,855.0,1,-0.34359479385966885,-0.1256893993786051
360,Exp1,d11032021,52UGI,memory_test,8.0,0.0,1.0,23.0,5.0,1.0,2040.0,23.0,1.0,521.0,1,0.3033997721678401,-0.3731172543439534
361,Exp1,d11032021,52UGI,memory_test,9.0,0.0,0.0,5.0,52.0,0.0,1743.0,,,,1,0.015739014517884762,
362,Exp1,d11032021,52UGI,memory_test,10.0,1.0,1.0,7.0,14.0,0.0,1553.0,7.0,,,0,-0.16828638599892168,
363,Exp1,d11032021,52UGI,memory_test,11.0,1.0,0.0,36.0,28.0,0.0,1989.0,,,,1,0.254003480450171,
364,Exp1,d11032021,52UGI,memory_test,12.0,1.0,1.0,40.0,27.0,1.0,1888.0,27.0,0.0,451.0,1,0.15617945175439493,-0.42497339161214015
365,Exp1,d11032021,52UGI,memory_test,13.0,1.0,0.0,1.0,7.0,0.0,1509.0,,,,1,-0.2109027945396558,
366,Exp1,d11032021,52UGI,memory_test,14.0,1.0,0.0,4.0,42.0,1.0,1011.0,,1.0,332.0,0,-0.6932430548416011,-0.5131288249680577
367,Exp1,d11032021,52UGI,memory_test,15.0,1.0,0.0,25.0,6.0,0.0,1746.0,,,,1,0.01864467873657118,
368,Exp1,d11032021,52UGI,memory_test,16.0,0.0,1.0,13.0,59.0,0.0,1430.0,59.0,,,0,-0.2874186189650648,
369,Exp1,d11032021,52UGI,memory_test,17.0,1.0,1.0,25.0,42.0,0.0,1013.0,25.0,,,0,-0.6913059453624768,
370,Exp1,d11032021,52UGI,memory_test,18.0,0.0,0.0,53.0,41.0,0.0,1049.0,,,,1,-0.6564379747382398,
371,Exp1,d11032021,52UGI,memory_test,19.0,0.0,1.0,56.0,47.0,1.0,927.0,47.0,1.0,352.0,1,-0.7746016529648208,-0.4983127857485757
372,Exp1,d11032021,52UGI,memory_test,20.0,0.0,0.0,30.0,50.0,0.0,1102.0,,,,1,-0.6051045735414464,
373,Exp1,d11032021,52UGI,memory_test,21.0,0.0,1.0,52.0,51.0,1.0,1218.0,52.0,1.0,297.0,1,-0.4927522237522383,-0.539056893602151
374,Exp1,d11032021,52UGI,memory_test,22.0,0.0,1.0,39.0,10.0,1.0,2755.0,10.0,1.0,326.0,1,0.9959164109547696,-0.5175736367339022
375,Exp1,d11032021,52UGI,memory_test,23.0,0.0,0.0,10.0,13.0,0.0,858.0,,,,1,-0.8414319299946084,
376,Exp1,d11032021,52UGI,memory_test,24.0,1.0,1.0,28.0,8.0,0.0,787.0,28.0,,,0,-0.9101993165035203,
377,Exp1,d11032021,52UGI,memory_test,25.0,1.0,0.0,27.0,8.0,1.0,1344.0,,1.0,313.0,0,-0.37071432656740877,-0.5272040622265655
378,Exp1,d11032021,52UGI,memory_test,26.0,1.0,0.0,14.0,49.0,0.0,1755.0,,,,1,0.027361671392630432,
379,Exp1,d11032021,52UGI,memory_test,27.0,1.0,0.0,9.0,26.0,0.0,1431.0,,,,1,-0.2864500642255027,
380,Exp1,d11032021,52UGI,memory_test,28.0,1.0,1.0,3.0,6.0,0.0,2718.0,3.0,,,0,0.9600798855909705,
381,Exp1,d11032021,52UGI,memory_test,29.0,0.0,0.0,23.0,56.0,1.0,1335.0,,1.0,270.0,0,-0.379431319223468,-0.5590585465484517
382,Exp1,d11032021,52UGI,memory_test,30.0,0.0,1.0,50.0,24.0,0.0,814.0,24.0,,,0,-0.8840483385353425,
383,Exp1,d11032021,52UGI,memory_test,31.0,1.0,0.0,3.0,40.0,0.0,662.0,,,,1,-1.0312686589487876,
384,Exp1,d11032021,gRBxs,memory_test,0.0,0.0,0.0,53.0,51.0,0.0,2300.0,,,,1,-0.19731980947662847,
385,Exp1,d11032021,gRBxs,memory_test,1.0,1.0,0.0,9.0,8.0,0.0,1952.0,,,,1,-0.434231227086519,
386,Exp1,d11032021,gRBxs,memory_test,2.0,0.0,1.0,41.0,21.0,1.0,1374.0,21.0,0.0,1444.0,1,-0.8277220298983488,1.1000394319102176
387,Exp1,d11032021,gRBxs,memory_test,3.0,0.0,0.0,29.0,35.0,0.0,1627.0,,,,1,-0.6554847061762157,
388,Exp1,d11032021,gRBxs,memory_test,4.0,1.0,0.0,14.0,1.0,0.0,1627.0,,,,1,-0.6554847061762157,
389,Exp1,d11032021,gRBxs,memory_test,5.0,1.0,0.0,22.0,39.0,1.0,1326.0,,1.0,786.0,0,-0.8603994668100577,-0.043609721805116415
390,Exp1,d11032021,gRBxs,memory_test,6.0,0.0,1.0,35.0,24.0,1.0,1810.0,35.0,1.0,431.0,1,-0.5309019779503249,-0.6606240828521431
391,Exp1,d11032021,gRBxs,memory_test,7.0,1.0,1.0,52.0,22.0,1.0,2621.0,22.0,0.0,338.0,1,0.021210549870425723,-0.8222644647602375
392,Exp1,d11032021,gRBxs,memory_test,8.0,0.0,1.0,46.0,15.0,0.0,2524.0,15.0,,,0,-0.04482510388865296,
393,Exp1,d11032021,gRBxs,memory_test,9.0,0.0,1.0,40.0,32.0,0.0,5690.0,32.0,,,0,2.1105241724128225,
394,Exp1,d11032021,gRBxs,memory_test,10.0,1.0,0.0,0.0,58.0,1.0,3078.0,,1.0,1145.0,0,0.33232698046732223,0.580356913732581
395,Exp1,d11032021,gRBxs,memory_test,11.0,0.0,0.0,24.0,21.0,0.0,1950.0,,,,1,-0.4355927869578402,
396,Exp1,d11032021,gRBxs,memory_test,12.0,1.0,1.0,8.0,39.0,0.0,1960.0,8.0,,,0,-0.4287849876012342,
397,Exp1,d11032021,gRBxs,memory_test,13.0,1.0,0.0,52.0,43.0,1.0,1031.0,,0.0,908.0,0,-1.0612295478299363,0.16843465016034068
398,Exp1,d11032021,gRBxs,memory_test,14.0,1.0,1.0,1.0,26.0,0.0,4685.0,26.0,,,0,1.4263403370739145,
399,Exp1,d11032021,gRBxs,memory_test,15.0,0.0,0.0,44.0,28.0,1.0,2155.0,,1.0,595.0,0,-0.2960329001474162,-0.3755808287346435
400,Exp1,d11032021,gRBxs,memory_test,16.0,1.0,0.0,16.0,26.0,0.0,7816.0,,,,1,3.557862315627269,
401,Exp1,d11032021,gRBxs,memory_test,17.0,0.0,1.0,51.0,28.0,1.0,2505.0,51.0,1.0,360.0,1,-0.05775992266620446,-0.7840269550615485
402,Exp1,d11032021,gRBxs,memory_test,18.0,1.0,1.0,17.0,9.0,0.0,2818.0,17.0,,,0,0.1553241971955649,
403,Exp1,d11032021,gRBxs,memory_test,19.0,0.0,0.0,15.0,41.0,0.0,2057.0,,,,1,-0.3627493338421555,
404,Exp1,d11032021,gRBxs,memory_test,20.0,1.0,1.0,30.0,0.0,1.0,2604.0,0.0,0.0,292.0,1,0.00963729096419544,-0.9022156214029509
405,Exp1,d11032021,gRBxs,memory_test,21.0,1.0,0.0,25.0,30.0,0.0,1856.0,,,,1,-0.4995861009099371,
406,Exp1,d11032021,gRBxs,memory_test,22.0,0.0,1.0,44.0,10.0,1.0,2151.0,44.0,0.0,475.0,1,-0.2987560198900586,-0.5841490634547652
407,Exp1,d11032021,gRBxs,memory_test,23.0,1.0,0.0,27.0,17.0,0.0,1600.0,,,,1,-0.673865764439052,
408,Exp1,d11032021,gRBxs,memory_test,24.0,0.0,1.0,53.0,31.0,1.0,4916.0,31.0,0.0,2148.0,1,1.5836005022115143,2.323639742268265
409,Exp1,d11032021,gRBxs,memory_test,25.0,0.0,0.0,13.0,10.0,0.0,2303.0,,,,1,-0.19527746966964665,
410,Exp1,d11032021,gRBxs,memory_test,26.0,0.0,0.0,40.0,31.0,0.0,2121.0,,,,1,-0.31917941795987675,
411,Exp1,d11032021,gRBxs,memory_test,27.0,0.0,0.0,32.0,46.0,0.0,1985.0,,,,1,-0.41176548920971906,
412,Exp1,d11032021,gRBxs,memory_test,28.0,1.0,1.0,27.0,14.0,0.0,1577.0,14.0,,,0,-0.6895237029592459,
413,Exp1,d11032021,gRBxs,memory_test,29.0,1.0,1.0,25.0,16.0,0.0,3013.0,25.0,,,0,0.2880762846493829,
414,Exp1,d11032021,gRBxs,memory_test,30.0,0.0,1.0,13.0,29.0,0.0,1144.0,13.0,,,0,-0.9843014151002879,
415,Exp1,d11032021,gRBxs,memory_test,31.0,1.0,1.0,43.0,58.0,0.0,4699.0,43.0,,,0,1.4358712561731628,
416,Exp1,d11032021,LBPHd,memory_test,0.0,1.0,0.0,10.0,40.0,1.0,4297.0,,1.0,3878.0,0,3.8045637000638686,2.694292052499588
417,Exp1,d11032021,LBPHd,memory_test,1.0,1.0,0.0,35.0,47.0,1.0,2268.0,,0.0,2622.0,0,0.588750227203791,1.24479553038598
418,Exp1,d11032021,LBPHd,memory_test,2.0,1.0,1.0,22.0,25.0,1.0,2147.0,25.0,1.0,2854.0,1,0.3969742635684685,1.5125369261904043
419,Exp1,d11032021,LBPHd,memory_test,3.0,1.0,1.0,29.0,40.0,0.0,1452.0,29.0,,,0,-0.7045488333451608,
420,Exp1,d11032021,LBPHd,memory_test,4.0,0.0,0.0,5.0,37.0,1.0,3580.0,,1.0,1734.0,0,2.668172246125635,0.21999225678973455
421,Exp1,d11032021,LBPHd,memory_test,5.0,0.0,1.0,0.0,18.0,0.0,2179.0,18.0,,,0,0.4476918737860744,
422,Exp1,d11032021,LBPHd,memory_test,6.0,1.0,1.0,10.0,27.0,0.0,1555.0,10.0,,,0,-0.5413015254572416,
423,Exp1,d11032021,LBPHd,memory_test,7.0,0.0,0.0,0.0,41.0,0.0,2292.0,,,,1,0.6267884348669954,
424,Exp1,d11032021,LBPHd,memory_test,8.0,1.0,1.0,33.0,47.0,0.0,2211.0,47.0,,,0,0.49840948400368035,
425,Exp1,d11032021,LBPHd,memory_test,9.0,0.0,0.0,6.0,53.0,1.0,1651.0,,0.0,1375.0,0,-0.3891486948044238,-0.19431447206280159
426,Exp1,d11032021,LBPHd,memory_test,10.0,1.0,0.0,33.0,17.0,0.0,2186.0,,,,1,0.4587863510211757,
427,Exp1,d11032021,LBPHd,memory_test,11.0,0.0,1.0,31.0,37.0,1.0,1498.0,31.0,1.0,1263.0,1,-0.6316422686573523,-0.3235689390028686
428,Exp1,d11032021,LBPHd,memory_test,12.0,1.0,1.0,8.0,39.0,0.0,1444.0,8.0,,,0,-0.7172282358995623,
429,Exp1,d11032021,LBPHd,memory_test,13.0,1.0,0.0,14.0,27.0,0.0,1452.0,,,,1,-0.7045488333451608,
430,Exp1,d11032021,LBPHd,memory_test,14.0,0.0,1.0,5.0,24.0,1.0,1693.0,5.0,1.0,710.0,1,-0.32258183139381597,-0.9617628695194493
431,Exp1,d11032021,LBPHd,memory_test,15.0,1.0,0.0,8.0,21.0,1.0,1924.0,,1.0,527.0,0,0.043535917364526985,-1.1729554360375944
432,Exp1,d11032021,LBPHd,memory_test,16.0,0.0,0.0,18.0,11.0,0.0,1979.0,,,,1,0.13070680992603723,
433,Exp1,d11032021,LBPHd,memory_test,17.0,1.0,1.0,13.0,51.0,1.0,1996.0,51.0,0.0,1191.0,1,0.1576505403541404,-0.40666109632148306
434,Exp1,d11032021,LBPHd,memory_test,18.0,1.0,1.0,14.0,35.0,0.0,1627.0,14.0,,,0,-0.42718690246762825,
435,Exp1,d11032021,LBPHd,memory_test,19.0,0.0,0.0,36.0,15.0,1.0,1612.0,,0.0,1142.0,0,-0.45096078225713104,-0.46320992560776236
436,Exp1,d11032021,LBPHd,memory_test,20.0,0.0,1.0,4.0,11.0,0.0,1347.0,4.0,,,0,-0.8709659918716803,
437,Exp1,d11032021,LBPHd,memory_test,21.0,0.0,1.0,41.0,6.0,1.0,1987.0,41.0,1.0,1326.0,1,0.1433862124804387,-0.2508633013490809
438,Exp1,d11032021,LBPHd,memory_test,22.0,0.0,1.0,36.0,53.0,1.0,1700.0,53.0,1.0,1143.0,1,-0.3114873541587147,-0.4620558678672261
439,Exp1,d11032021,LBPHd,memory_test,23.0,1.0,0.0,29.0,22.0,0.0,2219.0,,,,1,0.5110888865580818,
440,Exp1,d11032021,LBPHd,memory_test,24.0,1.0,0.0,13.0,25.0,0.0,2020.0,,,,1,0.19568874801734484,
441,Exp1,d11032021,LBPHd,memory_test,25.0,1.0,0.0,39.0,51.0,0.0,1163.0,,,,1,-1.1625922506229145,
442,Exp1,d11032021,LBPHd,memory_test,26.0,0.0,0.0,1.0,31.0,1.0,1346.0,,0.0,1182.0,0,-0.8725509171909805,-0.41704761598630985
443,Exp1,d11032021,LBPHd,memory_test,27.0,0.0,1.0,58.0,46.0,1.0,1364.0,46.0,0.0,1182.0,1,-0.8440222614435772,-0.41704761598630985
444,Exp1,d11032021,LBPHd,memory_test,28.0,1.0,1.0,17.0,21.0,0.0,1691.0,17.0,,,0,-0.32575168203241633,
445,Exp1,d11032021,LBPHd,memory_test,29.0,0.0,0.0,4.0,58.0,0.0,1522.0,,,,1,-0.5936040609941478,
446,Exp1,d11032021,LBPHd,memory_test,30.0,0.0,1.0,1.0,15.0,1.0,1452.0,15.0,0.0,991.0,1,-0.7045488333451608,-0.6374726444287455
447,Exp1,d11032021,LBPHd,memory_test,31.0,0.0,0.0,46.0,24.0,1.0,1835.0,,1.0,1574.0,0,-0.09752243605318957,0.03534301830392456
448,Exp1,d11032021,mRarI,memory_test,0.0,1.0,1.0,34.0,20.0,0.0,3435.0,34.0,,,0,3.526856633564661,
449,Exp1,d11032021,mRarI,memory_test,1.0,0.0,0.0,21.0,41.0,0.0,1303.0,,,,1,-0.01114961514235472,
450,Exp1,d11032021,mRarI,memory_test,2.0,0.0,1.0,41.0,53.0,1.0,1047.0,53.0,0.0,4782.0,1,-0.4359758814036099,4.054064640322309
451,Exp1,d11032021,mRarI,memory_test,3.0,1.0,0.0,49.0,50.0,0.0,2376.0,,,,1,1.7694698524292343,
452,Exp1,d11032021,mRarI,memory_test,4.0,0.0,1.0,33.0,32.0,1.0,1990.0,32.0,0.0,569.0,1,1.1289114978321855,0.09307801470127752
453,Exp1,d11032021,mRarI,memory_test,5.0,0.0,0.0,30.0,4.0,1.0,2332.0,,1.0,288.0,0,1.6964528379155812,-0.1711131179356819
454,Exp1,d11032021,mRarI,memory_test,6.0,1.0,0.0,48.0,2.0,1.0,1044.0,,1.0,294.0,0,-0.440954314211359,-0.16547202613560447
455,Exp1,d11032021,mRarI,memory_test,7.0,1.0,1.0,19.0,37.0,1.0,920.0,37.0,0.0,254.0,1,-0.6467295369316545,-0.20307930480278732
456,Exp1,d11032021,mRarI,memory_test,8.0,1.0,0.0,19.0,34.0,1.0,1488.0,,0.0,259.0,0,0.29585374133550546,-0.19837839496938947
457,Exp1,d11032021,mRarI,memory_test,9.0,1.0,0.0,59.0,20.0,1.0,866.0,,1.0,275.0,0,-0.736341327471138,-0.18333548350251633
458,Exp1,d11032021,mRarI,memory_test,10.0,1.0,0.0,22.0,0.0,0.0,1624.0,,,,1,0.5215426952867973,
459,Exp1,d11032021,mRarI,memory_test,11.0,0.0,0.0,56.0,15.0,0.0,1446.0,,,,1,0.22615568202701827,
460,Exp1,d11032021,mRarI,memory_test,12.0,0.0,1.0,30.0,24.0,1.0,1430.0,30.0,1.0,260.0,1,0.19960404038568985,-0.1974382130027099
461,Exp1,d11032021,mRarI,memory_test,13.0,0.0,0.0,27.0,32.0,1.0,688.0,,0.0,236.0,0,-1.031728340730917,-0.22000258020301958
462,Exp1,d11032021,mRarI,memory_test,14.0,1.0,0.0,13.0,55.0,1.0,1346.0,,1.0,143.0,0,0.060207921768715485,-0.3074395031042197
463,Exp1,d11032021,mRarI,memory_test,15.0,1.0,0.0,52.0,7.0,0.0,1411.0,,,,1,0.1680739659366123,
464,Exp1,d11032021,mRarI,memory_test,16.0,1.0,1.0,7.0,2.0,1.0,1637.0,7.0,1.0,138.0,1,0.5431159041203767,-0.3121404129376175
465,Exp1,d11032021,mRarI,memory_test,17.0,0.0,0.0,31.0,53.0,0.0,1757.0,,,,1,0.74225321643034,
466,Exp1,d11032021,mRarI,memory_test,18.0,0.0,1.0,56.0,31.0,1.0,1460.0,56.0,1.0,105.0,1,0.2493883684631807,-0.34316641783804336
467,Exp1,d11032021,mRarI,memory_test,19.0,0.0,1.0,21.0,28.0,1.0,995.0,21.0,1.0,53.0,1,-0.5222687167379273,-0.39205588010538106
468,Exp1,d11032021,mRarI,memory_test,20.0,1.0,1.0,48.0,46.0,0.0,542.0,48.0,,,0,-1.2740120707080391,
469,Exp1,d11032021,mRarI,memory_test,21.0,1.0,0.0,37.0,46.0,0.0,824.0,,,,1,-0.8060393867796252,
470,Exp1,d11032021,mRarI,memory_test,22.0,0.0,1.0,4.0,44.0,1.0,906.0,44.0,0.0,103.0,1,-0.6699622233678169,-0.3450467817714025
471,Exp1,d11032021,mRarI,memory_test,23.0,0.0,1.0,10.0,27.0,1.0,1101.0,10.0,0.0,880.0,1,-0.3463640908641264,0.38547460633862407
472,Exp1,d11032021,mRarI,memory_test,24.0,0.0,0.0,28.0,44.0,1.0,1436.0,,0.0,87.0,0,0.209560906001188,-0.36008969323827567
473,Exp1,d11032021,mRarI,memory_test,25.0,0.0,1.0,26.0,15.0,1.0,998.0,26.0,1.0,16.0,1,-0.5172902839301783,-0.4268426128725252
474,Exp1,d11032021,mRarI,memory_test,26.0,1.0,1.0,22.0,50.0,0.0,1531.0,50.0,,,0,0.3672112782465757,
475,Exp1,d11032021,mRarI,memory_test,27.0,1.0,1.0,59.0,55.0,1.0,859.0,59.0,1.0,42.0,1,-0.7479576706892191,-0.4023978817388563
476,Exp1,d11032021,mRarI,memory_test,28.0,0.0,0.0,26.0,33.0,0.0,835.0,,,,1,-0.7877851331512118,
477,Exp1,d11032021,mRarI,memory_test,29.0,1.0,1.0,0.0,52.0,0.0,840.0,0.0,,,0,-0.7794877451382967,
478,Exp1,d11032021,mRarI,memory_test,30.0,1.0,1.0,13.0,49.0,1.0,925.0,13.0,1.0,146.0,1,-0.6384321489187393,-0.304618957204181
479,Exp1,d11032021,mRarI,memory_test,31.0,0.0,0.0,24.0,10.0,0.0,519.0,,,,1,-1.3121800555674488,
480,Exp1,d11032021,zwAoN,memory_test,0.0,1.0,1.0,12.0,14.0,1.0,2184.0,12.0,0.0,4025.0,1,2.8298694703295335,3.419191815774541
481,Exp1,d11032021,zwAoN,memory_test,1.0,1.0,0.0,2.0,7.0,1.0,2024.0,,1.0,354.0,0,2.476265280260291,-0.5337120076491256
482,Exp1,d11032021,zwAoN,memory_test,2.0,1.0,1.0,13.0,47.0,1.0,449.0,13.0,1.0,270.0,1,-1.004525965733815,-0.624162544605701
483,Exp1,d11032021,zwAoN,memory_test,3.0,0.0,1.0,42.0,38.0,1.0,1156.0,42.0,1.0,360.0,1,0.5579625491346505,-0.5272512550093703
484,Exp1,d11032021,zwAoN,memory_test,4.0,0.0,1.0,35.0,26.0,1.0,570.0,35.0,0.0,816.0,1,-0.7371127969939503,-0.0362340543879614
485,Exp1,d11032021,zwAoN,memory_test,5.0,1.0,0.0,28.0,13.0,1.0,282.0,,0.0,1339.0,0,-1.373600339118587,0.5269282173773826
486,Exp1,d11032021,zwAoN,memory_test,6.0,1.0,0.0,0.0,19.0,0.0,1199.0,,,,1,0.6529936752157594,
487,Exp1,d11032021,zwAoN,memory_test,7.0,0.0,0.0,26.0,4.0,1.0,1367.0,,1.0,1906.0,0,1.024278074788464,1.1374693418342658
488,Exp1,d11032021,zwAoN,memory_test,8.0,1.0,0.0,5.0,31.0,1.0,1129.0,,1.0,228.0,0,0.4982918420604658,-0.6693878130839886
489,Exp1,d11032021,zwAoN,memory_test,9.0,0.0,0.0,23.0,56.0,1.0,800.0,,1.0,150.0,0,-0.22880677376941416,-0.7533775974008086
490,Exp1,d11032021,zwAoN,memory_test,10.0,1.0,1.0,5.0,19.0,1.0,313.0,19.0,1.0,1662.0,1,-1.305089527292671,0.8747320678175472
491,Exp1,d11032021,zwAoN,memory_test,11.0,0.0,0.0,35.0,38.0,0.0,1190.0,,,,1,0.6331034395243645,
492,Exp1,d11032021,zwAoN,memory_test,12.0,1.0,1.0,53.0,57.0,1.0,1529.0,57.0,0.0,1438.0,1,1.382302317233572,0.6335306359333464
493,Exp1,d11032021,zwAoN,memory_test,13.0,1.0,1.0,2.0,59.0,1.0,955.0,2.0,1.0,219.0,1,0.11374728536016454,-0.6790789420436217
494,Exp1,d11032021,zwAoN,memory_test,14.0,0.0,0.0,42.0,9.0,0.0,1069.0,,,,1,0.36569027078449984,
495,Exp1,d11032021,zwAoN,memory_test,15.0,1.0,1.0,51.0,0.0,1.0,998.0,51.0,1.0,121.0,1,0.20877841144127346,-0.7846045684929596
496,Exp1,d11032021,zwAoN,memory_test,16.0,0.0,1.0,40.0,15.0,1.0,725.0,40.0,1.0,210.0,1,-0.39455873786437157,-0.6887700710032548
497,Exp1,d11032021,zwAoN,memory_test,17.0,1.0,1.0,28.0,31.0,1.0,860.0,31.0,0.0,403.0,1,-0.09620520249344822,-0.4809491944244567
498,Exp1,d11032021,zwAoN,memory_test,18.0,1.0,0.0,14.0,51.0,1.0,639.0,,1.0,752.0,0,-0.5846209900265894,-0.10514874921201879
499,Exp1,d11032021,zwAoN,memory_test,19.0,1.0,0.0,12.0,53.0,0.0,750.0,,,,1,-0.33930808316605243,
500,Exp1,d11032021,zwAoN,memory_test,20.0,0.0,0.0,22.0,30.0,0.0,810.0,,,,1,-0.2067065118900865,
501,Exp1,d11032021,zwAoN,memory_test,21.0,1.0,1.0,55.0,7.0,0.0,1084.0,55.0,,,0,0.39884066360349135,
502,Exp1,d11032021,zwAoN,memory_test,22.0,1.0,0.0,57.0,59.0,1.0,722.0,,1.0,499.0,0,-0.4011888164281699,-0.3775771521883706
503,Exp1,d11032021,zwAoN,memory_test,23.0,0.0,0.0,15.0,49.0,1.0,473.0,,0.0,1333.0,0,-0.9514853372234285,0.5204674647376272
504,Exp1,d11032021,zwAoN,memory_test,24.0,1.0,0.0,55.0,47.0,0.0,905.0,,,,1,0.0032459759635262496,
505,Exp1,d11032021,zwAoN,memory_test,25.0,0.0,1.0,22.0,48.0,1.0,1079.0,48.0,1.0,337.0,1,0.3877905326638275,-0.5520174734617659
506,Exp1,d11032021,zwAoN,memory_test,26.0,0.0,1.0,10.0,23.0,1.0,1036.0,23.0,0.0,571.0,1,0.29275940658271854,-0.3000481205113061
507,Exp1,d11032021,zwAoN,memory_test,27.0,0.0,1.0,4.0,56.0,0.0,764.0,4.0,,,0,-0.30836771653499373,
508,Exp1,d11032021,zwAoN,memory_test,28.0,0.0,0.0,48.0,10.0,0.0,433.0,,,,1,-1.0398863847407391,
509,Exp1,d11032021,zwAoN,memory_test,29.0,0.0,1.0,9.0,49.0,0.0,268.0,49.0,,,0,-1.4045407057496455,
510,Exp1,d11032021,zwAoN,memory_test,30.0,0.0,0.0,8.0,40.0,0.0,862.0,,,,1,-0.09178515011758268,
511,Exp1,d11032021,zwAoN,memory_test,31.0,0.0,1.0,30.0,8.0,0.0,289.0,30.0,,,0,-1.3581301558030574,
512,Exp1,d11032021,XikH0,memory_test,0.0,1.0,0.0,44.0,56.0,0.0,4632.0,,,,1,1.8925504174614205,
513,Exp1,d11032021,XikH0,memory_test,1.0,1.0,1.0,40.0,4.0,1.0,1328.0,4.0,1.0,5751.0,1,0.03015679741896828,2.417772837054704
514,Exp1,d11032021,XikH0,memory_test,2.0,1.0,0.0,27.0,47.0,1.0,1027.0,,1.0,584.0,0,-0.13951041796625513,-0.35213536927253875
515,Exp1,d11032021,XikH0,memory_test,3.0,1.0,1.0,56.0,47.0,1.0,755.0,47.0,0.0,1348.0,1,-0.2928309581150284,0.05742721436090689
516,Exp1,d11032021,XikH0,memory_test,4.0,0.0,1.0,37.0,23.0,1.0,1997.0,37.0,0.0,844.0,1,0.4072576847701791,-0.21275543243393158
517,Exp1,d11032021,XikH0,memory_test,5.0,0.0,1.0,19.0,34.0,0.0,2072.0,19.0,,,0,0.4495335690023776,
518,Exp1,d11032021,XikH0,memory_test,6.0,0.0,1.0,41.0,22.0,0.0,63.0,41.0,,,0,-0.6828964499641135,
519,Exp1,d11032021,XikH0,memory_test,7.0,1.0,0.0,6.0,3.0,0.0,45.0,,,,1,-0.6930426621798411,
520,Exp1,d11032021,XikH0,memory_test,8.0,0.0,0.0,59.0,16.0,0.0,98.0,,,,1,-0.6631677039890874,
521,Exp1,d11032021,XikH0,memory_test,9.0,0.0,0.0,5.0,13.0,0.0,366.0,,,,1,-0.5121018776660314,
522,Exp1,d11032021,XikH0,memory_test,10.0,0.0,1.0,32.0,59.0,0.0,625.0,32.0,,,0,-0.3661091574508392,
523,Exp1,d11032021,XikH0,memory_test,11.0,1.0,1.0,30.0,17.0,1.0,2289.0,30.0,1.0,301.0,1,0.5718517940475387,-0.5038450697545611
524,Exp1,d11032021,XikH0,memory_test,12.0,0.0,0.0,46.0,41.0,0.0,452.0,,,,1,-0.46362553041311044,
525,Exp1,d11032021,XikH0,memory_test,13.0,0.0,0.0,37.0,22.0,0.0,2030.0,,,,1,0.42585907383234645,
526,Exp1,d11032021,XikH0,memory_test,14.0,1.0,0.0,17.0,54.0,0.0,9476.0,,,,1,4.623008860405015,
527,Exp1,d11032021,XikH0,memory_test,15.0,0.0,0.0,58.0,31.0,1.0,1035.0,,1.0,762.0,0,-0.1350009903148206,-0.25671372020610767
528,Exp1,d11032021,XikH0,memory_test,16.0,1.0,1.0,14.0,54.0,0.0,321.0,54.0,,,0,-0.5374674082053505,
529,Exp1,d11032021,XikH0,memory_test,17.0,0.0,0.0,19.0,23.0,0.0,217.0,,,,1,-0.5960899676739991,
530,Exp1,d11032021,XikH0,memory_test,18.0,1.0,0.0,4.0,25.0,0.0,338.0,,,,1,-0.5278848744460523,
531,Exp1,d11032021,XikH0,memory_test,19.0,0.0,0.0,34.0,32.0,0.0,1512.0,,,,1,0.13387363340196198,
532,Exp1,d11032021,XikH0,memory_test,20.0,0.0,1.0,58.0,46.0,1.0,1816.0,58.0,1.0,125.0,1,0.30523188415647334,-0.5981945654606952
533,Exp1,d11032021,XikH0,memory_test,21.0,1.0,0.0,30.0,24.0,1.0,1386.0,,1.0,212.0,0,0.06285014789186846,-0.5515558942877766
534,Exp1,d11032021,XikH0,memory_test,22.0,1.0,0.0,40.0,2.0,0.0,264.0,,,,1,-0.5695970802218214,
535,Exp1,d11032021,XikH0,memory_test,23.0,1.0,1.0,25.0,3.0,0.0,81.0,3.0,,,0,-0.6727502377483858,
536,Exp1,d11032021,XikH0,memory_test,24.0,0.0,0.0,35.0,55.0,0.0,713.0,,,,1,-0.3165054532850596,
537,Exp1,d11032021,XikH0,memory_test,25.0,1.0,1.0,44.0,6.0,0.0,47.0,44.0,,,0,-0.6919153052669824,
538,Exp1,d11032021,XikH0,memory_test,26.0,1.0,1.0,24.0,2.0,0.0,466.0,2.0,,,0,-0.4557340320231001,
539,Exp1,d11032021,XikH0,memory_test,27.0,0.0,1.0,16.0,35.0,0.0,1754.0,16.0,,,0,0.2702838198578559,
540,Exp1,d11032021,XikH0,memory_test,28.0,1.0,0.0,12.0,14.0,0.0,1243.0,,,,1,-0.01775587137752338,
541,Exp1,d11032021,XikH0,memory_test,29.0,1.0,1.0,12.0,27.0,0.0,661.0,12.0,,,0,-0.3458167330193839,
542,Exp1,d11032021,XikH0,memory_test,30.0,0.0,1.0,5.0,31.0,0.0,382.0,5.0,,,0,-0.5030830223631624,
543,Exp1,d11032021,XikH0,memory_test,31.0,0.0,1.0,55.0,13.0,0.0,1293.0,55.0,,,0,0.010428051443942302,
544,Exp1,d11042021,pKoz9,memory_test,0.0,0.0,0.0,32.0,41.0,1.0,2757.0,,0.0,6897.0,0,1.473607124990227,3.56472135442411
545,Exp1,d11042021,pKoz9,memory_test,1.0,0.0,0.0,42.0,59.0,1.0,2280.0,,1.0,1589.0,0,0.8871151778727148,0.19467599088101037
546,Exp1,d11042021,pKoz9,memory_test,2.0,0.0,1.0,39.0,53.0,1.0,4122.0,39.0,0.0,2841.0,1,3.1519331371818495,0.9895698859744468
547,Exp1,d11042021,pKoz9,memory_test,3.0,1.0,0.0,33.0,37.0,0.0,2970.0,,,,1,1.7354997554640845,
548,Exp1,d11042021,pKoz9,memory_test,4.0,0.0,0.0,18.0,39.0,1.0,2251.0,,1.0,1997.0,0,0.8514584347565558,0.4537148959913315
549,Exp1,d11042021,pKoz9,memory_test,5.0,0.0,0.0,27.0,2.0,1.0,2012.0,,0.0,3002.0,0,0.5575976897647625,1.0917886696086667
550,Exp1,d11042021,pKoz9,memory_test,6.0,1.0,0.0,8.0,48.0,0.0,2760.0,,,,1,1.4772957535884501,
551,Exp1,d11042021,pKoz9,memory_test,7.0,1.0,1.0,33.0,31.0,1.0,1830.0,31.0,0.0,3359.0,1,0.33382088813921285,1.3184477115801978
552,Exp1,d11042021,pKoz9,memory_test,8.0,1.0,1.0,13.0,46.0,1.0,260.0,13.0,1.0,2794.0,1,-1.5965614115976718,0.9597296199445815
553,Exp1,d11042021,pKoz9,memory_test,9.0,1.0,1.0,17.0,47.0,0.0,1939.0,47.0,,,0,0.46784106054132774,
554,Exp1,d11042021,pKoz9,memory_test,10.0,1.0,1.0,34.0,48.0,0.0,2150.0,48.0,,,0,0.7272746052830364,
555,Exp1,d11042021,pKoz9,memory_test,11.0,1.0,1.0,58.0,52.0,0.0,1299.0,52.0,,,0,-0.31906637374631946,
556,Exp1,d11042021,pKoz9,memory_test,12.0,1.0,1.0,4.0,35.0,1.0,1116.0,35.0,1.0,1606.0,1,-0.5440727182379436,0.2054692785939404
557,Exp1,d11042021,pKoz9,memory_test,13.0,0.0,0.0,44.0,25.0,1.0,1708.0,,1.0,406.0,0,0.18381665847813008,-0.5564098540834748
558,Exp1,d11042021,pKoz9,memory_test,14.0,0.0,1.0,24.0,44.0,1.0,1113.0,24.0,1.0,328.0,1,-0.547761346836167,-0.6059319977075068
559,Exp1,d11042021,pKoz9,memory_test,15.0,0.0,1.0,5.0,41.0,1.0,1153.0,5.0,1.0,293.0,1,-0.49857963219318896,-0.628153472410598
560,Exp1,d11042021,pKoz9,memory_test,16.0,1.0,0.0,58.0,31.0,1.0,833.0,,1.0,302.0,0,-0.8920333493370126,-0.6224393789155175
561,Exp1,d11042021,pKoz9,memory_test,17.0,0.0,1.0,22.0,18.0,1.0,749.0,22.0,0.0,923.0,1,-0.9953149500872663,-0.22816692775495506
562,Exp1,d11042021,pKoz9,memory_test,18.0,1.0,0.0,13.0,34.0,1.0,1163.0,,1.0,423.0,0,-0.4862842035324445,-0.5456165663705448
563,Exp1,d11042021,pKoz9,memory_test,19.0,0.0,1.0,59.0,25.0,1.0,740.0,25.0,1.0,305.0,1,-1.0063808358819364,-0.6205346810838239
564,Exp1,d11042021,pKoz9,memory_test,20.0,0.0,1.0,2.0,0.0,1.0,737.0,2.0,1.0,326.0,1,-1.0100694644801598,-0.6072017962619691
565,Exp1,d11042021,pKoz9,memory_test,21.0,0.0,1.0,15.0,42.0,1.0,1094.0,42.0,0.0,347.0,1,-0.5711226612915815,-0.5938689114401143
566,Exp1,d11042021,pKoz9,memory_test,22.0,1.0,0.0,46.0,47.0,1.0,1079.0,,0.0,347.0,0,-0.5895658042826982,-0.5938689114401143
567,Exp1,d11042021,pKoz9,memory_test,23.0,0.0,0.0,5.0,15.0,1.0,937.0,,1.0,314.0,0,-0.7641608912652699,-0.6148205875887433
568,Exp1,d11042021,pKoz9,memory_test,24.0,1.0,0.0,52.0,17.0,0.0,1501.0,,,,1,-0.0706987147992808,
569,Exp1,d11042021,pKoz9,memory_test,25.0,1.0,0.0,49.0,4.0,1.0,977.0,,1.0,1131.0,0,-0.7149791766222919,-0.09610787809086978
570,Exp1,d11042021,pKoz9,memory_test,26.0,0.0,1.0,27.0,32.0,1.0,788.0,32.0,1.0,292.0,1,-0.9473627783103628,-0.6287883716878292
571,Exp1,d11042021,pKoz9,memory_test,27.0,1.0,1.0,8.0,49.0,1.0,2062.0,49.0,1.0,293.0,1,0.619074833068485,-0.628153472410598
572,Exp1,d11042021,pKoz9,memory_test,28.0,1.0,0.0,35.0,23.0,0.0,1262.0,,,,1,-0.36455945979107407,
573,Exp1,d11042021,pKoz9,memory_test,29.0,0.0,0.0,24.0,53.0,1.0,1421.0,,1.0,286.0,0,-0.1690621440852367,-0.6325977673512163
574,Exp1,d11042021,pKoz9,memory_test,30.0,0.0,0.0,0.0,22.0,0.0,1623.0,,,,1,0.07930551486180194,
575,Exp1,d11042021,pKoz9,memory_test,31.0,1.0,1.0,37.0,23.0,1.0,1186.0,37.0,1.0,376.0,1,-0.45800471761273215,-0.5754568324004101
576,Exp1,d11032021,A8WPp,memory_test,0.0,1.0,1.0,44.0,48.0,0.0,2180.0,48.0,,,0,-0.3737584049113085,
577,Exp1,d11032021,A8WPp,memory_test,1.0,1.0,0.0,4.0,22.0,0.0,2247.0,,,,1,-0.3364868690913157,
578,Exp1,d11032021,A8WPp,memory_test,2.0,1.0,1.0,59.0,55.0,0.0,1951.0,55.0,,,0,-0.5011491765945676,
579,Exp1,d11032021,A8WPp,memory_test,3.0,1.0,0.0,31.0,38.0,0.0,1850.0,,,,1,-0.5573346261142582,
580,Exp1,d11032021,A8WPp,memory_test,4.0,0.0,0.0,53.0,54.0,1.0,2454.0,,1.0,3302.0,0,-0.22133451215492,3.479456633345021
581,Exp1,d11032021,A8WPp,memory_test,5.0,1.0,0.0,46.0,12.0,0.0,3664.0,,,,1,0.45177829892256216,
582,Exp1,d11032021,A8WPp,memory_test,6.0,1.0,0.0,55.0,44.0,0.0,1746.0,,,,1,-0.6151889503721575,
583,Exp1,d11032021,A8WPp,memory_test,7.0,1.0,0.0,45.0,8.0,0.0,7356.0,,,,1,2.505606810077987,
584,Exp1,d11032021,A8WPp,memory_test,8.0,0.0,1.0,40.0,24.0,1.0,2012.0,40.0,1.0,1268.0,1,-0.467215390250992,0.6579522186344247
585,Exp1,d11032021,A8WPp,memory_test,9.0,0.0,0.0,23.0,30.0,1.0,2911.0,,1.0,666.0,0,0.03289073963219515,-0.17712430921994066
586,Exp1,d11032021,A8WPp,memory_test,10.0,0.0,1.0,30.0,41.0,1.0,6274.0,41.0,0.0,991.0,1,1.9036993211640734,0.27370604219645256
587,Exp1,d11032021,A8WPp,memory_test,11.0,1.0,1.0,46.0,45.0,0.0,2179.0,45.0,,,0,-0.3743146964907114,
588,Exp1,d11032021,A8WPp,memory_test,12.0,0.0,1.0,23.0,19.0,0.0,8255.0,23.0,,,0,3.005712939961174,
589,Exp1,d11032021,A8WPp,memory_test,13.0,0.0,0.0,40.0,51.0,0.0,2268.0,,,,1,-0.3248047459238553,
590,Exp1,d11032021,A8WPp,memory_test,14.0,1.0,0.0,2.0,28.0,1.0,6113.0,,0.0,621.0,0,1.81413637688021,-0.23954697326221047
591,Exp1,d11032021,A8WPp,memory_test,15.0,0.0,0.0,19.0,42.0,0.0,3201.0,,,,1,0.19421529765902973,
592,Exp1,d11032021,A8WPp,memory_test,16.0,0.0,1.0,17.0,42.0,1.0,2397.0,42.0,0.0,995.0,1,-0.25304313218088403,0.27925472344465435
593,Exp1,d11032021,A8WPp,memory_test,17.0,1.0,0.0,7.0,48.0,1.0,2811.0,,0.0,423.0,0,-0.02273841830809263,-0.5142066950481977
594,Exp1,d11032021,A8WPp,memory_test,18.0,1.0,1.0,28.0,7.0,0.0,1806.0,28.0,,,0,-0.5818114556079849,
595,Exp1,d11032021,A8WPp,memory_test,19.0,1.0,0.0,50.0,59.0,0.0,3008.0,,,,1,0.0868510228342743,
596,Exp1,d11032021,A8WPp,memory_test,20.0,1.0,1.0,12.0,2.0,0.0,2187.0,12.0,,,0,-0.3698643638554884,
597,Exp1,d11032021,A8WPp,memory_test,21.0,0.0,1.0,53.0,51.0,1.0,1112.0,53.0,1.0,673.0,1,-0.967877811713582,-0.16741411703558756
598,Exp1,d11032021,A8WPp,memory_test,22.0,0.0,1.0,47.0,52.0,1.0,1748.0,47.0,1.0,693.0,1,-0.6140763672133518,-0.13967071079457874
599,Exp1,d11032021,A8WPp,memory_test,23.0,1.0,1.0,38.0,50.0,1.0,1423.0,50.0,0.0,545.0,1,-0.794871130519287,-0.34497191697804397
600,Exp1,d11032021,A8WPp,memory_test,24.0,0.0,0.0,24.0,25.0,1.0,1327.0,,0.0,394.0,0,-0.8482751221419633,-0.5544346340976605
601,Exp1,d11032021,A8WPp,memory_test,25.0,0.0,1.0,27.0,25.0,1.0,3425.0,25.0,0.0,549.0,1,0.31882461144527435,-0.33942323572984223
602,Exp1,d11032021,A8WPp,memory_test,26.0,1.0,1.0,22.0,8.0,1.0,3187.0,22.0,1.0,628.0,1,0.18642721554738942,-0.2298367810778574
603,Exp1,d11032021,A8WPp,memory_test,27.0,0.0,1.0,34.0,54.0,1.0,1334.0,34.0,1.0,331.0,1,-0.8443810810861432,-0.6418263637568383
604,Exp1,d11032021,A8WPp,memory_test,28.0,0.0,0.0,52.0,34.0,0.0,1131.0,,,,1,-0.9573082717049274,
605,Exp1,d11032021,A8WPp,memory_test,29.0,0.0,0.0,27.0,41.0,1.0,4505.0,,0.0,316.0,0,0.9196195172003824,-0.6626339184375949
606,Exp1,d11032021,A8WPp,memory_test,30.0,1.0,1.0,31.0,4.0,1.0,1811.0,31.0,1.0,304.0,1,-0.5790299977109704,-0.6792799621822002
607,Exp1,d11032021,A8WPp,memory_test,31.0,0.0,0.0,47.0,17.0,0.0,1387.0,,,,1,-0.8148976273777907,
608,Exp1,d11032021,YuIsp,memory_test,0.0,1.0,0.0,33.0,29.0,0.0,2806.0,,,,1,1.2935244620996187,
609,Exp1,d11032021,YuIsp,memory_test,1.0,1.0,0.0,17.0,44.0,0.0,2665.0,,,,1,1.0381923082369238,
610,Exp1,d11032021,YuIsp,memory_test,2.0,1.0,0.0,37.0,58.0,0.0,2332.0,,,,1,0.4351738171994955,
611,Exp1,d11032021,YuIsp,memory_test,3.0,0.0,0.0,4.0,12.0,1.0,2002.0,,1.0,2670.0,0,-0.16241207481957765,3.4929450881700936
612,Exp1,d11032021,YuIsp,memory_test,4.0,1.0,0.0,3.0,22.0,1.0,2159.0,,0.0,1032.0,0,0.12189394047434503,0.63677508190627
613,Exp1,d11032021,YuIsp,memory_test,5.0,0.0,0.0,21.0,55.0,0.0,1898.0,,,,1,-0.35074217412255826,
614,Exp1,d11032021,YuIsp,memory_test,6.0,1.0,1.0,33.0,31.0,1.0,3013.0,33.0,1.0,744.0,1,1.668373794366128,0.134591344541202
615,Exp1,d11032021,YuIsp,memory_test,7.0,1.0,1.0,47.0,3.0,0.0,2697.0,47.0,,,0,1.0961400310993794,
616,Exp1,d11032021,YuIsp,memory_test,8.0,0.0,1.0,4.0,5.0,1.0,2487.0,4.0,1.0,775.0,1,0.7158580998145146,0.1886458440492475
617,Exp1,d11032021,YuIsp,memory_test,9.0,0.0,1.0,6.0,2.0,1.0,1589.0,6.0,1.0,440.0,1,-0.9102998730131449,-0.39549148934414746
618,Exp1,d11032021,YuIsp,memory_test,10.0,0.0,1.0,59.0,55.0,1.0,2369.0,59.0,1.0,613.0,1,0.5021758717592097,-0.09383250821860319
619,Exp1,d11032021,YuIsp,memory_test,11.0,1.0,1.0,37.0,32.0,1.0,1272.0,37.0,1.0,552.0,1,-1.4843445026193454,-0.2001978137021766
620,Exp1,d11032021,YuIsp,memory_test,12.0,0.0,1.0,24.0,52.0,1.0,1249.0,24.0,1.0,411.0,1,-1.5259944284267353,-0.4460586017871578
621,Exp1,d11032021,YuIsp,memory_test,13.0,0.0,1.0,53.0,21.0,1.0,1785.0,21.0,0.0,330.0,1,-0.5553700704806045,-0.5872977779210831
622,Exp1,d11032021,YuIsp,memory_test,14.0,1.0,0.0,14.0,32.0,0.0,1791.0,,,,1,-0.5445048724438941,
623,Exp1,d11032021,YuIsp,memory_test,15.0,0.0,0.0,8.0,59.0,0.0,1356.0,,,,1,-1.3322317301053996,
624,Exp1,d11032021,YuIsp,memory_test,16.0,1.0,1.0,58.0,22.0,0.0,2043.0,22.0,,,0,-0.08816655490205642,
625,Exp1,d11032021,YuIsp,memory_test,17.0,0.0,0.0,52.0,6.0,0.0,1548.0,,,,1,-0.9845453929306661,
626,Exp1,d11032021,YuIsp,memory_test,18.0,1.0,0.0,31.0,47.0,0.0,2202.0,,,,1,0.1997611930707697,
627,Exp1,d11032021,YuIsp,memory_test,19.0,1.0,0.0,56.0,26.0,1.0,1846.0,,1.0,648.0,0,-0.44490722377404857,-0.03280323458048729
628,Exp1,d11032021,YuIsp,memory_test,20.0,0.0,1.0,12.0,57.0,1.0,2121.0,57.0,0.0,355.0,1,0.05308101957517903,-0.5437054396081432
629,Exp1,d11032021,YuIsp,memory_test,21.0,1.0,1.0,56.0,35.0,0.0,2296.0,56.0,,,0,0.36998262897923295,
630,Exp1,d11032021,YuIsp,memory_test,22.0,0.0,0.0,24.0,7.0,1.0,2537.0,,1.0,309.0,0,0.8064014167871015,-0.6239153421039526
631,Exp1,d11032021,YuIsp,memory_test,23.0,1.0,1.0,29.0,28.0,1.0,1937.0,28.0,0.0,328.0,1,-0.28011838688394053,-0.5907851649861183
632,Exp1,d11032021,YuIsp,memory_test,24.0,0.0,1.0,45.0,7.0,0.0,1720.0,45.0,,,0,-0.6730763825449674,
633,Exp1,d11032021,YuIsp,memory_test,25.0,0.0,1.0,23.0,8.0,1.0,3461.0,23.0,1.0,362.0,1,2.479641914440506,-0.53149958488052
634,Exp1,d11032021,YuIsp,memory_test,26.0,1.0,1.0,44.0,26.0,0.0,2157.0,44.0,,,0,0.11827220779544155,
635,Exp1,d11032021,YuIsp,memory_test,27.0,1.0,1.0,14.0,17.0,0.0,1901.0,14.0,,,0,-0.345309575104203,
636,Exp1,d11032021,YuIsp,memory_test,28.0,0.0,0.0,23.0,5.0,1.0,1379.0,,1.0,373.0,0,-1.2905818042980095,-0.5123189560228264
637,Exp1,d11032021,YuIsp,memory_test,29.0,1.0,0.0,35.0,28.0,1.0,1560.0,,0.0,727.0,0,-0.9628149968572453,0.10494855448840286
638,Exp1,d11032021,YuIsp,memory_test,30.0,0.0,0.0,2.0,57.0,0.0,1652.0,,,,1,-0.7962152936276855,
639,Exp1,d11032021,YuIsp,memory_test,31.0,0.0,0.0,53.0,45.0,0.0,3104.0,,,,1,1.8331626312562361,
640,Exp1,d11032021,ohzUx,memory_test,0.0,1.0,1.0,22.0,2.0,1.0,5209.0,2.0,0.0,2515.0,1,3.4384772743371625,1.8670801941676405
641,Exp1,d11032021,ohzUx,memory_test,1.0,1.0,1.0,53.0,46.0,0.0,2573.0,46.0,,,0,1.1027218078995678,
642,Exp1,d11032021,ohzUx,memory_test,2.0,0.0,0.0,47.0,26.0,1.0,3475.0,,0.0,2052.0,0,1.901982593455983,1.2590561886113771
643,Exp1,d11032021,ohzUx,memory_test,3.0,1.0,0.0,6.0,55.0,0.0,908.0,,,,1,-0.37263208118184177,
644,Exp1,d11032021,ohzUx,memory_test,4.0,0.0,0.0,43.0,27.0,1.0,1833.0,,1.0,920.0,0,0.4470089683078302,-0.22751654203590205
645,Exp1,d11032021,ohzUx,memory_test,5.0,1.0,1.0,55.0,1.0,1.0,323.0,55.0,1.0,612.0,1,-0.8909996638320667,-0.6319903945441723
646,Exp1,d11032021,ohzUx,memory_test,6.0,1.0,1.0,45.0,28.0,0.0,1162.0,45.0,,,0,-0.14756307948413722,
647,Exp1,d11032021,ohzUx,memory_test,7.0,1.0,1.0,11.0,58.0,0.0,1319.0,58.0,,,0,-0.008445625678863174,
648,Exp1,d11032021,ohzUx,memory_test,8.0,0.0,1.0,0.0,40.0,0.0,2069.0,40.0,,,0,0.6561281982316817,
649,Exp1,d11032021,ohzUx,memory_test,9.0,0.0,1.0,16.0,4.0,0.0,1399.0,4.0,,,0,0.06244224887159494,
650,Exp1,d11032021,ohzUx,memory_test,10.0,0.0,1.0,20.0,49.0,1.0,2674.0,49.0,1.0,607.0,1,1.1922177495195212,-0.6385565285134625
651,Exp1,d11032021,ohzUx,memory_test,11.0,0.0,0.0,52.0,40.0,0.0,936.0,,,,1,-0.3478213250891814,
652,Exp1,d11032021,ohzUx,memory_test,12.0,1.0,0.0,17.0,11.0,0.0,511.0,,,,1,-0.7244131586384902,
653,Exp1,d11032021,ohzUx,memory_test,13.0,1.0,1.0,34.0,35.0,0.0,1617.0,35.0,,,0,0.2556117070215933,
654,Exp1,d11032021,ohzUx,memory_test,14.0,1.0,1.0,50.0,33.0,0.0,831.0,50.0,,,0,-0.4408616604366577,
655,Exp1,d11032021,ohzUx,memory_test,15.0,0.0,0.0,16.0,48.0,0.0,348.0,,,,1,-0.8688472030350486,
656,Exp1,d11032021,ohzUx,memory_test,16.0,0.0,0.0,18.0,4.0,0.0,616.0,,,,1,-0.6313728232910139,
657,Exp1,d11032021,ohzUx,memory_test,17.0,1.0,0.0,58.0,33.0,0.0,643.0,,,,1,-0.6074481656302343,
658,Exp1,d11032021,ohzUx,memory_test,18.0,1.0,0.0,34.0,50.0,0.0,301.0,,,,1,-0.9104938293334427,
659,Exp1,d11032021,ohzUx,memory_test,19.0,0.0,1.0,51.0,18.0,0.0,141.0,51.0,,,0,-1.052269578434359,
660,Exp1,d11032021,ohzUx,memory_test,20.0,0.0,0.0,20.0,51.0,0.0,228.0,,,,1,-0.9751790148607358,
661,Exp1,d11032021,ohzUx,memory_test,21.0,1.0,0.0,35.0,53.0,0.0,848.0,,,,1,-0.42579798709468536,
662,Exp1,d11032021,ohzUx,memory_test,22.0,1.0,1.0,6.0,17.0,0.0,631.0,17.0,,,0,-0.618081346812803,
663,Exp1,d11032021,ohzUx,memory_test,23.0,1.0,0.0,2.0,1.0,0.0,2174.0,,,,1,0.7491685335791579,
664,Exp1,d11032021,ohzUx,memory_test,24.0,1.0,0.0,22.0,45.0,0.0,846.0,,,,1,-0.4275701839584468,
665,Exp1,d11032021,ohzUx,memory_test,25.0,0.0,1.0,43.0,26.0,1.0,1849.0,43.0,1.0,938.0,1,0.46118654321792185,-0.20387845974645766
666,Exp1,d11032021,ohzUx,memory_test,26.0,1.0,0.0,28.0,46.0,1.0,1802.0,,1.0,487.0,0,0.4195399169195277,-0.7961437437764248
667,Exp1,d11032021,ohzUx,memory_test,27.0,0.0,0.0,30.0,9.0,1.0,2713.0,,1.0,615.0,0,1.2267755883628695,-0.6280507141625983
668,Exp1,d11032021,ohzUx,memory_test,28.0,0.0,1.0,47.0,52.0,0.0,1746.0,47.0,,,0,0.369918404734207,
669,Exp1,d11032021,ohzUx,memory_test,29.0,0.0,1.0,30.0,27.0,0.0,243.0,30.0,,,0,-0.9618875383825248,
670,Exp1,d11032021,ohzUx,memory_test,30.0,0.0,0.0,49.0,0.0,0.0,320.0,,,,1,-0.893657959127709,
671,Exp1,d11032021,ohzUx,memory_test,31.0,0.0,1.0,9.0,48.0,0.0,225.0,48.0,,,0,-0.9778373101563779,
672,Exp1,d11032021,wsG9k,memory_test,0.0,0.0,1.0,2.0,14.0,0.0,2083.0,14.0,,,0,-0.28081509140478345,
673,Exp1,d11032021,wsG9k,memory_test,1.0,1.0,0.0,32.0,6.0,1.0,1212.0,,0.0,2901.0,0,-0.32417201315190636,0.003380163543205144
674,Exp1,d11032021,wsG9k,memory_test,2.0,0.0,0.0,8.0,15.0,1.0,4265.0,,1.0,11504.0,0,-0.17219878457100363,1.9951299554743034
675,Exp1,d11032021,wsG9k,memory_test,3.0,1.0,1.0,20.0,12.0,0.0,3495.0,12.0,,,0,-0.21052809541518808,
676,Exp1,d11032021,wsG9k,memory_test,4.0,0.0,1.0,33.0,8.0,1.0,1556.0,33.0,1.0,421.0,1,-0.3070482690864525,-0.570784602699864
677,Exp1,d11032021,wsG9k,memory_test,5.0,1.0,0.0,1.0,53.0,0.0,112937.0,,,,1,5.2373114336877125,
678,Exp1,d11032021,wsG9k,memory_test,6.0,0.0,0.0,31.0,43.0,0.0,1470.0,,,,1,-0.311329205102816,
679,Exp1,d11032021,wsG9k,memory_test,7.0,1.0,0.0,24.0,9.0,1.0,8696.0,,0.0,368.0,0,0.04836897692325775,-0.5830550593978006
680,Exp1,d11032021,wsG9k,memory_test,8.0,1.0,0.0,58.0,12.0,0.0,1690.0,,,,1,-0.300377973433049,
681,Exp1,d11032021,wsG9k,memory_test,9.0,1.0,0.0,44.0,0.0,0.0,1394.0,,,,1,-0.31511235786146274,
682,Exp1,d11032021,wsG9k,memory_test,10.0,0.0,1.0,39.0,57.0,1.0,1260.0,57.0,0.0,441.0,1,-0.3217826535148663,-0.5661542416817748
683,Exp1,d11032021,wsG9k,memory_test,11.0,0.0,0.0,2.0,33.0,1.0,1986.0,,0.0,359.0,0,-0.2856435890046352,-0.5851387218559407
684,Exp1,d11032021,wsG9k,memory_test,12.0,0.0,0.0,28.0,27.0,0.0,2322.0,,,,1,-0.26891807154535474,
685,Exp1,d11032021,wsG9k,memory_test,13.0,0.0,0.0,57.0,11.0,0.0,996.0,,,,1,-0.33492413151858663,
686,Exp1,d11032021,wsG9k,memory_test,14.0,1.0,1.0,0.0,9.0,1.0,1519.0,9.0,0.0,2472.0,1,-0.3088900671400042,-0.09594108029480963
687,Exp1,d11032021,wsG9k,memory_test,15.0,1.0,0.0,34.0,20.0,1.0,4450.0,,0.0,12893.0,0,-0.16298979430324503,2.316708528180603
688,Exp1,d11032021,wsG9k,memory_test,16.0,0.0,1.0,11.0,45.0,1.0,19954.0,45.0,1.0,8214.0,1,0.6087733684606973,1.233435567998619
689,Exp1,d11032021,wsG9k,memory_test,17.0,1.0,0.0,3.0,23.0,0.0,29153.0,,,,1,1.0666841872342723,
690,Exp1,d11032021,wsG9k,memory_test,18.0,0.0,0.0,41.0,7.0,0.0,3214.0,,,,1,-0.2245158049570268,
691,Exp1,d11032021,wsG9k,memory_test,19.0,0.0,1.0,28.0,7.0,1.0,3468.0,28.0,1.0,384.0,1,-0.2118721102110231,-0.5793507705833291
692,Exp1,d11032021,wsG9k,memory_test,20.0,1.0,1.0,53.0,44.0,0.0,11933.0,44.0,,,0,0.20950141744614742,
693,Exp1,d11032021,wsG9k,memory_test,21.0,1.0,1.0,17.0,24.0,0.0,6326.0,17.0,,,0,-0.06960565515559566,
694,Exp1,d11032021,wsG9k,memory_test,22.0,1.0,1.0,58.0,1.0,0.0,1840.0,1.0,,,0,-0.2929112245672988,
695,Exp1,d11032021,wsG9k,memory_test,23.0,1.0,1.0,32.0,3.0,1.0,1363.0,3.0,0.0,320.0,1,-0.31665548596038445,-0.5941679258412148
696,Exp1,d11032021,wsG9k,memory_test,24.0,0.0,1.0,27.0,43.0,1.0,1835.0,43.0,0.0,320.0,1,-0.2931601161961571,-0.5941679258412148
697,Exp1,d11032021,wsG9k,memory_test,25.0,0.0,0.0,13.0,45.0,1.0,2441.0,,0.0,316.0,0,-0.26299445077852623,-0.5950939980448327
698,Exp1,d11032021,wsG9k,memory_test,26.0,1.0,1.0,34.0,23.0,0.0,3163.0,34.0,,,0,-0.22705449957138188,
699,Exp1,d11032021,wsG9k,memory_test,27.0,1.0,1.0,6.0,25.0,1.0,849.0,6.0,0.0,279.0,1,-0.3422415454070219,-0.6036601659282977
700,Exp1,d11032021,wsG9k,memory_test,28.0,0.0,0.0,14.0,39.0,1.0,2427.0,,1.0,2104.0,0,-0.2636913473393296,-0.18113972302765213
701,Exp1,d11032021,wsG9k,memory_test,29.0,0.0,1.0,13.0,41.0,0.0,854.0,41.0,,,0,-0.3419926537781635,
702,Exp1,d11032021,wsG9k,memory_test,30.0,0.0,1.0,15.0,31.0,0.0,4026.0,15.0,,,0,-0.1840958044304323,
703,Exp1,d11032021,wsG9k,memory_test,31.0,1.0,0.0,25.0,17.0,0.0,3001.0,,,,1,-0.2351185883463921,
704,Exp1,d11032021,JaNZv,memory_test,0.0,1.0,0.0,51.0,17.0,1.0,3639.0,,0.0,2624.0,0,0.15899219824043725,1.977039771487448
705,Exp1,d11032021,JaNZv,memory_test,1.0,0.0,0.0,6.0,42.0,1.0,3368.0,,0.0,1438.0,0,0.09219729740035044,0.6216106444274213
706,Exp1,d11032021,JaNZv,memory_test,2.0,1.0,0.0,48.0,2.0,0.0,3171.0,,,,1,0.0436415945756379,
707,Exp1,d11032021,JaNZv,memory_test,3.0,0.0,0.0,56.0,27.0,1.0,809.0,,1.0,1167.0,0,-0.5385338880231999,0.3118962317518166
708,Exp1,d11032021,JaNZv,memory_test,4.0,1.0,1.0,14.0,45.0,1.0,1613.0,14.0,1.0,261.0,1,-0.34036746634264714,-0.7235327641304634
709,Exp1,d11032021,JaNZv,memory_test,5.0,1.0,1.0,2.0,36.0,1.0,1053.0,36.0,1.0,265.0,1,-0.4783938297022361,-0.718961333685067
710,Exp1,d11032021,JaNZv,memory_test,6.0,1.0,1.0,35.0,25.0,1.0,1926.0,25.0,0.0,460.0,1,-0.26322058825059114,-0.4961040994719935
711,Exp1,d11032021,JaNZv,memory_test,7.0,0.0,0.0,38.0,4.0,1.0,819.0,,0.0,391.0,0,-0.5360691315346358,-0.5749612746550811
712,Exp1,d11032021,JaNZv,memory_test,8.0,0.0,1.0,16.0,42.0,1.0,1012.0,16.0,1.0,554.0,1,-0.48849933130534884,-0.3886754840051786
713,Exp1,d11032021,JaNZv,memory_test,9.0,1.0,0.0,14.0,35.0,1.0,778.0,,1.0,321.0,0,-0.5461746331377485,-0.6549613074495177
714,Exp1,d11032021,JaNZv,memory_test,10.0,0.0,0.0,40.0,37.0,0.0,1991.0,,,,1,-0.24719967107492458,
715,Exp1,d11032021,JaNZv,memory_test,11.0,0.0,1.0,38.0,0.0,0.0,1053.0,0.0,,,0,-0.4783938297022361,
716,Exp1,d11032021,JaNZv,memory_test,12.0,1.0,1.0,19.0,28.0,0.0,1247.0,28.0,,,0,-0.4305775538240928,
717,Exp1,d11032021,JaNZv,memory_test,13.0,0.0,1.0,40.0,56.0,1.0,641.0,56.0,0.0,305.0,1,-0.5799417970310765,-0.6732470292311032
718,Exp1,d11032021,JaNZv,memory_test,14.0,0.0,1.0,49.0,11.0,1.0,1435.0,11.0,0.0,1161.0,1,-0.3842401318390879,0.30503908608372204
719,Exp1,d11032021,JaNZv,memory_test,15.0,0.0,1.0,50.0,6.0,1.0,617.0,6.0,1.0,2132.0,1,-0.5858572126036303,1.4147538267036932
720,Exp1,d11032021,JaNZv,memory_test,16.0,1.0,0.0,28.0,33.0,1.0,650.0,,0.0,3303.0,0,-0.5777235161913689,2.7530400895934832
721,Exp1,d11032021,JaNZv,memory_test,17.0,0.0,1.0,37.0,15.0,0.0,3447.0,37.0,,,0,0.11166887366000675,
722,Exp1,d11032021,JaNZv,memory_test,18.0,0.0,0.0,15.0,16.0,1.0,11705.0,,0.0,461.0,0,2.147064781916231,-0.4949612418606444
723,Exp1,d11032021,JaNZv,memory_test,19.0,1.0,0.0,47.0,24.0,0.0,21372.0,,,,1,4.529744879411136,
724,Exp1,d11032021,JaNZv,memory_test,20.0,1.0,0.0,45.0,36.0,0.0,1350.0,,,,1,-0.40519056199188264,
725,Exp1,d11032021,JaNZv,memory_test,21.0,0.0,0.0,55.0,49.0,1.0,745.0,,1.0,475.0,0,-0.55430832955001,-0.4789612353017571
726,Exp1,d11032021,JaNZv,memory_test,22.0,1.0,0.0,19.0,1.0,1.0,1942.0,,0.0,372.0,0,-0.2592769778688886,-0.5966755692707139
727,Exp1,d11032021,JaNZv,memory_test,23.0,1.0,0.0,12.0,25.0,1.0,4561.0,,1.0,2038.0,0,0.38624274648604623,1.3073252112368783
728,Exp1,d11032021,JaNZv,memory_test,24.0,0.0,0.0,0.0,50.0,0.0,6546.0,,,,1,0.8754969094660179,
729,Exp1,d11032021,JaNZv,memory_test,25.0,0.0,0.0,26.0,11.0,0.0,6148.0,,,,1,0.7773996012211671,
730,Exp1,d11032021,JaNZv,memory_test,26.0,1.0,1.0,1.0,51.0,1.0,3342.0,1.0,1.0,486.0,1,0.08578893053008381,-0.46638980157691706
731,Exp1,d11032021,JaNZv,memory_test,27.0,1.0,1.0,48.0,24.0,0.0,1622.0,48.0,,,0,-0.33814918550293943,
732,Exp1,d11032021,JaNZv,memory_test,28.0,1.0,1.0,17.0,12.0,1.0,703.0,17.0,1.0,524.0,1,-0.5646603068019792,-0.4229612123456514
733,Exp1,d11032021,JaNZv,memory_test,29.0,1.0,1.0,47.0,33.0,1.0,2373.0,47.0,1.0,291.0,1,-0.15304597321177638,-0.6892470357899906
734,Exp1,d11032021,JaNZv,memory_test,30.0,0.0,1.0,4.0,26.0,1.0,1559.0,4.0,1.0,391.0,1,-0.35367715138089323,-0.5749612746550811
735,Exp1,d11032021,JaNZv,memory_test,31.0,0.0,1.0,55.0,27.0,1.0,2569.0,55.0,1.0,250.0,1,-0.10473674603592024,-0.7361041978553035
736,Exp1,d11032021,HgayM,memory_test,0.0,1.0,1.0,15.0,9.0,0.0,4941.0,9.0,,,0,1.2951923000981806,
737,Exp1,d11032021,HgayM,memory_test,1.0,0.0,1.0,43.0,55.0,1.0,2194.0,55.0,0.0,5266.0,1,-0.37073178681514457,2.9594651700471255
738,Exp1,d11032021,HgayM,memory_test,2.0,0.0,0.0,1.0,39.0,1.0,2907.0,,1.0,1608.0,0,0.06166860414561295,-0.12135545221650819
739,Exp1,d11032021,HgayM,memory_test,3.0,1.0,0.0,35.0,18.0,0.0,2008.0,,,,1,-0.48353188880490744,
740,Exp1,d11032021,HgayM,memory_test,4.0,1.0,1.0,10.0,7.0,1.0,2952.0,10.0,1.0,1705.0,1,0.08895895140120073,-0.039660646213344586
741,Exp1,d11032021,HgayM,memory_test,5.0,0.0,1.0,39.0,34.0,1.0,6250.0,34.0,0.0,1681.0,1,2.0890381791551675,-0.05987379409041599
742,Exp1,d11032021,HgayM,memory_test,6.0,0.0,0.0,49.0,17.0,0.0,4055.0,,,,1,0.7578756852437191,
743,Exp1,d11032021,HgayM,memory_test,7.0,0.0,0.0,4.0,26.0,0.0,1267.0,,,,1,-0.932912940280253,
744,Exp1,d11032021,HgayM,memory_test,8.0,1.0,0.0,7.0,38.0,1.0,6603.0,,0.0,1345.0,0,2.303115792071223,-0.3428578643694157
745,Exp1,d11032021,HgayM,memory_test,9.0,0.0,0.0,25.0,43.0,0.0,1420.0,,,,1,-0.8401257596112545,
746,Exp1,d11032021,HgayM,memory_test,10.0,1.0,1.0,8.0,38.0,0.0,2614.0,38.0,,,0,-0.11602187909632528,
747,Exp1,d11032021,HgayM,memory_test,11.0,0.0,0.0,41.0,44.0,0.0,8302.0,,,,1,3.3334780140099705,
748,Exp1,d11032021,HgayM,memory_test,12.0,0.0,1.0,21.0,49.0,0.0,1446.0,21.0,,,0,-0.824358003419137,
749,Exp1,d11032021,HgayM,memory_test,13.0,0.0,1.0,26.0,59.0,1.0,1293.0,26.0,1.0,1291.0,1,-0.9171451840881355,-0.38833744709282636
750,Exp1,d11032021,HgayM,memory_test,14.0,1.0,0.0,3.0,16.0,0.0,2536.0,,,,1,-0.16332514767267745,
751,Exp1,d11032021,HgayM,memory_test,15.0,1.0,1.0,35.0,37.0,0.0,2860.0,35.0,,,0,0.033165352567554596,
752,Exp1,d11032021,HgayM,memory_test,16.0,0.0,0.0,55.0,30.0,0.0,3039.0,,,,1,0.14172028942867043,
753,Exp1,d11032021,HgayM,memory_test,17.0,1.0,0.0,9.0,8.0,0.0,1976.0,,,,1,-0.5029383579644365,
754,Exp1,d11032021,HgayM,memory_test,18.0,1.0,0.0,24.0,37.0,0.0,2300.0,,,,1,-0.30644785772420446,
755,Exp1,d11032021,HgayM,memory_test,19.0,1.0,1.0,52.0,23.0,1.0,2313.0,23.0,0.0,1554.0,1,-0.2985639796281458,-0.16683503493991886
756,Exp1,d11032021,HgayM,memory_test,20.0,1.0,0.0,31.0,23.0,0.0,2873.0,,,,1,0.04104923066361329,
757,Exp1,d11032021,HgayM,memory_test,21.0,1.0,1.0,3.0,24.0,1.0,2959.0,24.0,0.0,1244.0,1,0.09320411652984772,-0.4279215283520912
758,Exp1,d11032021,HgayM,memory_test,22.0,0.0,1.0,25.0,19.0,0.0,3663.0,25.0,,,0,0.5201464380394877,
759,Exp1,d11032021,HgayM,memory_test,23.0,1.0,0.0,11.0,15.0,0.0,2482.0,,,,1,-0.19607356437938278,
760,Exp1,d11032021,HgayM,memory_test,24.0,0.0,0.0,19.0,34.0,0.0,1408.0,,,,1,-0.8474031855460779,
761,Exp1,d11032021,HgayM,memory_test,25.0,1.0,1.0,11.0,18.0,0.0,1585.0,11.0,,,0,-0.7400611530074326,
762,Exp1,d11032021,HgayM,memory_test,26.0,0.0,0.0,59.0,21.0,0.0,1745.0,,,,1,-0.6430288072097872,
763,Exp1,d11032021,HgayM,memory_test,27.0,1.0,1.0,16.0,31.0,1.0,2129.0,16.0,1.0,1453.0,1,-0.41015117729543804,-0.25189869892259437
764,Exp1,d11032021,HgayM,memory_test,28.0,0.0,1.0,1.0,4.0,1.0,3010.0,1.0,1.0,1124.0,1,0.1241331767528472,-0.5289872677374482
765,Exp1,d11032021,HgayM,memory_test,29.0,0.0,1.0,44.0,17.0,1.0,1873.0,17.0,0.0,1002.0,1,-0.5654029305716708,-0.6317374361125612
766,Exp1,d11032021,HgayM,memory_test,30.0,1.0,0.0,52.0,10.0,0.0,1338.0,,,,1,-0.8898548368325477,
767,Exp1,d11032021,HgayM,memory_test,31.0,0.0,1.0,41.0,30.0,0.0,1429.0,41.0,,,0,-0.8346676901601369,
768,Exp1,d11032021,CzDFV,memory_test,0.0,0.0,0.0,56.0,3.0,1.0,4011.0,,1.0,5665.0,0,0.9071527345313564,4.227029604701356
769,Exp1,d11032021,CzDFV,memory_test,1.0,1.0,1.0,31.0,42.0,1.0,3847.0,42.0,0.0,2048.0,1,0.7910626676967455,1.035110239987495
770,Exp1,d11032021,CzDFV,memory_test,2.0,1.0,0.0,4.0,36.0,1.0,1625.0,,1.0,793.0,0,-0.7818161646599948,-0.07239841434368952
771,Exp1,d11032021,CzDFV,memory_test,3.0,0.0,0.0,28.0,32.0,1.0,1686.0,,0.0,1478.0,0,-0.738636322727609,0.5320983412075945
772,Exp1,d11032021,CzDFV,memory_test,4.0,1.0,0.0,2.0,59.0,1.0,2238.0,,1.0,346.0,0,-0.3478941465525773,-0.46686564022898
773,Exp1,d11032021,CzDFV,memory_test,5.0,0.0,1.0,54.0,16.0,1.0,1595.0,54.0,1.0,719.0,1,-0.8030521524955944,-0.13770171348353624
774,Exp1,d11032021,CzDFV,memory_test,6.0,0.0,1.0,10.0,47.0,1.0,2475.0,47.0,0.0,2045.0,1,-0.1801298426513408,1.032462808941285
775,Exp1,d11032021,CzDFV,memory_test,7.0,1.0,0.0,46.0,38.0,1.0,1371.0,,1.0,393.0,0,-0.9616141950014044,-0.42538922050502326
776,Exp1,d11032021,CzDFV,memory_test,8.0,0.0,1.0,32.0,39.0,0.0,2879.0,39.0,,,0,0.10584812686806652,
777,Exp1,d11032021,CzDFV,memory_test,9.0,0.0,0.0,14.0,58.0,1.0,3645.0,,0.0,507.0,0,0.6480736829370418,-0.3247868407490431
778,Exp1,d11032021,CzDFV,memory_test,10.0,1.0,1.0,55.0,29.0,1.0,3016.0,29.0,1.0,188.0,1,0.20282580465063782,-0.6062970086627067
779,Exp1,d11032021,CzDFV,memory_test,11.0,1.0,0.0,31.0,53.0,0.0,7444.0,,,,1,3.337257609185132,
780,Exp1,d11032021,CzDFV,memory_test,12.0,1.0,0.0,42.0,30.0,1.0,2444.0,,1.0,278.0,0,-0.202073696748127,-0.5268740772764067
781,Exp1,d11032021,CzDFV,memory_test,13.0,1.0,0.0,55.0,23.0,0.0,4773.0,,,,1,1.4465468255555851,
782,Exp1,d11032021,CzDFV,memory_test,14.0,0.0,1.0,58.0,3.0,1.0,2886.0,3.0,1.0,230.0,1,0.1108031906963731,-0.5692329740157668
783,Exp1,d11032021,CzDFV,memory_test,15.0,0.0,1.0,18.0,26.0,1.0,1231.0,26.0,0.0,711.0,1,-1.0607154715675358,-0.14476152960676292
784,Exp1,d11032021,CzDFV,memory_test,16.0,1.0,1.0,23.0,36.0,1.0,697.0,23.0,0.0,538.0,1,-1.4387160550412077,-0.29743005327153976
785,Exp1,d11032021,CzDFV,memory_test,17.0,1.0,1.0,2.0,46.0,1.0,1538.0,46.0,0.0,281.0,1,-0.8434005293832335,-0.5242266462301967
786,Exp1,d11032021,CzDFV,memory_test,18.0,0.0,1.0,28.0,56.0,1.0,1292.0,28.0,1.0,339.0,1,-1.0175356296351499,-0.4730429793368033
787,Exp1,d11032021,CzDFV,memory_test,19.0,1.0,1.0,38.0,4.0,1.0,1337.0,4.0,0.0,687.0,1,-0.9856816478817506,-0.16594097797644294
788,Exp1,d11032021,CzDFV,memory_test,20.0,0.0,1.0,45.0,14.0,1.0,1649.0,14.0,0.0,862.0,1,-0.7648273743915152,-0.011507500280859447
789,Exp1,d11032021,CzDFV,memory_test,21.0,0.0,0.0,41.0,10.0,0.0,2393.0,,,,1,-0.23817487606864626,
790,Exp1,d11032021,CzDFV,memory_test,22.0,0.0,0.0,5.0,54.0,1.0,1107.0,,0.0,1277.0,0,-1.1484908879546805,0.3547204611115243
791,Exp1,d11032021,CzDFV,memory_test,23.0,1.0,1.0,50.0,53.0,1.0,3780.0,53.0,1.0,124.0,1,0.7436356281972398,-0.6627755376485202
792,Exp1,d11032021,CzDFV,memory_test,24.0,0.0,1.0,5.0,41.0,0.0,3339.0,41.0,,,0,0.43146660701392636,
793,Exp1,d11032021,CzDFV,memory_test,25.0,1.0,1.0,30.0,59.0,1.0,4333.0,59.0,1.0,259.0,1,1.1350856706334582,-0.54364114056907
794,Exp1,d11032021,CzDFV,memory_test,26.0,1.0,0.0,50.0,12.0,1.0,3387.0,,1.0,226.0,0,0.4654441875508856,-0.57276288207738
795,Exp1,d11032021,CzDFV,memory_test,27.0,0.0,0.0,45.0,26.0,1.0,4974.0,,0.0,525.0,0,1.588827944054102,-0.3089022544717831
796,Exp1,d11032021,CzDFV,memory_test,28.0,1.0,1.0,12.0,27.0,1.0,2096.0,12.0,1.0,291.0,1,-0.44841115564108186,-0.5154018760761634
797,Exp1,d11032021,CzDFV,memory_test,29.0,1.0,0.0,29.0,27.0,0.0,2881.0,,,,1,0.10726385939043984,
798,Exp1,d11032021,CzDFV,memory_test,30.0,0.0,0.0,39.0,16.0,0.0,2444.0,,,,1,-0.202073696748127,
799,Exp1,d11032021,CzDFV,memory_test,31.0,0.0,0.0,18.0,47.0,1.0,2930.0,,0.0,1066.0,0,0.14194930618858578,0.16851781086142076
800,Exp1,d11032021,CMpJs,memory_test,0.0,0.0,1.0,0.0,19.0,0.0,2412.0,19.0,,,0,2.4533812026529818,
801,Exp1,d11032021,CMpJs,memory_test,1.0,1.0,1.0,51.0,30.0,0.0,2258.0,51.0,,,0,2.1447199168047844,
802,Exp1,d11032021,CMpJs,memory_test,2.0,0.0,0.0,47.0,11.0,0.0,1430.0,,,,1,0.48516443185473573,
803,Exp1,d11032021,CMpJs,memory_test,3.0,1.0,0.0,48.0,22.0,1.0,1227.0,,1.0,2080.0,0,0.07829273687302087,2.7990057389432286
804,Exp1,d11032021,CMpJs,memory_test,4.0,0.0,0.0,9.0,55.0,1.0,1797.0,,0.0,1394.0,0,1.2207403533241414,1.321646071159926
805,Exp1,d11032021,CMpJs,memory_test,5.0,0.0,0.0,19.0,40.0,1.0,1148.0,,1.0,1298.0,0,-0.08004649417897654,1.1149018610911257
806,Exp1,d11032021,CMpJs,memory_test,6.0,0.0,0.0,3.0,59.0,0.0,1968.0,,,,1,1.5634746382594775,
807,Exp1,d11032021,CMpJs,memory_test,7.0,1.0,0.0,31.0,25.0,1.0,1108.0,,1.0,855.0,0,-0.1602182567369499,0.1608634750444741
808,Exp1,d11032021,CMpJs,memory_test,8.0,0.0,1.0,55.0,11.0,1.0,1864.0,55.0,1.0,536.0,1,1.3550280556087468,-0.526130306329977
809,Exp1,d11032021,CMpJs,memory_test,9.0,1.0,0.0,5.0,51.0,1.0,806.0,,0.0,1190.0,0,-0.7655150640496489,0.8823146247637254
810,Exp1,d11032021,CMpJs,memory_test,10.0,1.0,0.0,30.0,42.0,1.0,1054.0,,1.0,572.0,0,-0.26845013619021396,-0.4486012275541769
811,Exp1,d11032021,CMpJs,memory_test,11.0,0.0,1.0,1.0,14.0,1.0,1060.0,1.0,1.0,364.0,1,-0.25642437180651795,-0.8965470160365777
812,Exp1,d11032021,CMpJs,memory_test,12.0,1.0,1.0,10.0,29.0,1.0,934.0,29.0,0.0,766.0,1,-0.508965423864134,-0.030805636373476223
813,Exp1,d11032021,CMpJs,memory_test,13.0,1.0,1.0,12.0,48.0,1.0,830.0,48.0,0.0,1587.0,1,-0.7174120065148648,1.7372880768190768
814,Exp1,d11032021,CMpJs,memory_test,14.0,1.0,1.0,37.0,34.0,1.0,1985.0,37.0,1.0,441.0,1,1.5975476373466162,-0.7307209308772274
815,Exp1,d11032021,CMpJs,memory_test,15.0,1.0,1.0,5.0,23.0,1.0,911.0,23.0,0.0,995.0,1,-0.5550641873349688,0.4623654480614746
816,Exp1,d11032021,CMpJs,memory_test,16.0,1.0,0.0,10.0,23.0,0.0,1126.0,,,,1,-0.1241409635858619,
817,Exp1,d11032021,CMpJs,memory_test,17.0,1.0,0.0,29.0,12.0,1.0,687.0,,1.0,1022.0,0,-1.0040260576596196,0.5205122571433247
818,Exp1,d11032021,CMpJs,memory_test,18.0,0.0,1.0,32.0,9.0,1.0,804.0,32.0,1.0,536.0,1,-0.7695236521775475,-0.526130306329977
819,Exp1,d11032021,CMpJs,memory_test,19.0,1.0,1.0,45.0,31.0,1.0,766.0,31.0,0.0,469.0,1,-0.8456868266076222,-0.6704205362738274
820,Exp1,d11032021,CMpJs,memory_test,20.0,0.0,0.0,14.0,13.0,1.0,696.0,,0.0,464.0,0,-0.9859874110840756,-0.6811884638815773
821,Exp1,d11032021,CMpJs,memory_test,21.0,0.0,1.0,3.0,8.0,1.0,743.0,3.0,1.0,491.0,1,-0.8917855900784569,-0.6230416547997273
822,Exp1,d11032021,CMpJs,memory_test,22.0,0.0,1.0,40.0,50.0,1.0,1433.0,50.0,1.0,353.0,1,0.4911773140465837,-0.9202364567736278
823,Exp1,d11032021,CMpJs,memory_test,23.0,0.0,0.0,50.0,8.0,0.0,1202.0,,,,1,0.028185385274287513,
824,Exp1,d11032021,CMpJs,memory_test,24.0,0.0,0.0,44.0,1.0,1.0,621.0,,0.0,620.0,0,-1.1363094658802757,-0.3452291225197768
825,Exp1,d11032021,CMpJs,memory_test,25.0,1.0,1.0,16.0,22.0,1.0,768.0,16.0,1.0,842.0,1,-0.8416782384797236,0.13286686326432406
826,Exp1,d11032021,CMpJs,memory_test,26.0,1.0,0.0,37.0,45.0,1.0,752.0,,1.0,352.0,0,-0.8737469435029129,-0.9223900422951777
827,Exp1,d11032021,CMpJs,memory_test,27.0,1.0,0.0,34.0,16.0,0.0,1664.0,,,,1,0.9541692428188799,
828,Exp1,d11032021,CMpJs,memory_test,28.0,0.0,1.0,47.0,44.0,1.0,714.0,47.0,1.0,355.0,1,-0.9499101179329876,-0.9159292857305277
829,Exp1,d11032021,CMpJs,memory_test,29.0,1.0,1.0,25.0,42.0,0.0,1460.0,42.0,,,0,0.5452932537732157,
830,Exp1,d11032021,CMpJs,memory_test,30.0,0.0,0.0,0.0,32.0,0.0,984.0,,,,1,-0.40875072066666734,
831,Exp1,d11032021,CMpJs,memory_test,31.0,0.0,1.0,13.0,59.0,1.0,802.0,13.0,1.0,365.0,1,-0.7735322403054462,-0.8943934305150277
832,Exp1,d11032021,O9Udf,memory_test,0.0,0.0,1.0,27.0,37.0,1.0,7616.0,37.0,0.0,4021.0,1,4.127308122360317,3.97166873781926
833,Exp1,d11032021,O9Udf,memory_test,1.0,1.0,0.0,13.0,26.0,1.0,4769.0,,1.0,433.0,0,1.81526641385396,-0.17134248378717304
834,Exp1,d11032021,O9Udf,memory_test,2.0,1.0,1.0,0.0,33.0,1.0,3545.0,33.0,0.0,464.0,1,0.8212590196805212,-0.13554723633182203
835,Exp1,d11032021,O9Udf,memory_test,3.0,0.0,0.0,31.0,57.0,0.0,3482.0,,,,1,0.7700968743921824,
836,Exp1,d11032021,O9Udf,memory_test,4.0,0.0,0.0,37.0,6.0,1.0,3328.0,,1.0,431.0,0,0.6450338525762432,-0.1736518545907441
837,Exp1,d11032021,O9Udf,memory_test,5.0,1.0,1.0,36.0,13.0,0.0,1113.0,13.0,,,0,-1.1537622079582068,
838,Exp1,d11032021,O9Udf,memory_test,6.0,0.0,1.0,20.0,50.0,1.0,1723.0,50.0,0.0,363.0,1,-0.6583827059600063,-0.2521704619121592
839,Exp1,d11032021,O9Udf,memory_test,7.0,1.0,1.0,44.0,35.0,0.0,3463.0,44.0,,,0,0.7546670210512548,
840,Exp1,d11032021,O9Udf,memory_test,8.0,0.0,0.0,20.0,51.0,1.0,2605.0,,0.0,313.0,0,0.057887328076736466,-0.30990473200143503
841,Exp1,d11032021,O9Udf,memory_test,9.0,0.0,0.0,2.0,47.0,0.0,2262.0,,,,1,-0.22066212960421902,
842,Exp1,d11032021,O9Udf,memory_test,10.0,1.0,0.0,35.0,33.0,1.0,2972.0,,0.0,337.0,0,0.35592712681991623,-0.2821922823585826
843,Exp1,d11032021,O9Udf,memory_test,11.0,0.0,0.0,39.0,17.0,1.0,2369.0,,1.0,324.0,0,-0.13376769236846905,-0.29720319258179434
844,Exp1,d11032021,O9Udf,memory_test,12.0,1.0,0.0,10.0,0.0,0.0,2164.0,,,,1,-0.3002476889416349,
845,Exp1,d11032021,O9Udf,memory_test,13.0,0.0,0.0,27.0,50.0,0.0,2171.0,,,,1,-0.29456300613181946,
846,Exp1,d11032021,O9Udf,memory_test,14.0,1.0,1.0,19.0,9.0,1.0,2882.0,9.0,0.0,789.0,1,0.28283834783657513,0.2397255192484708
847,Exp1,d11032021,O9Udf,memory_test,15.0,1.0,1.0,53.0,48.0,0.0,2983.0,48.0,,,0,0.36486019980676904,
848,Exp1,d11032021,O9Udf,memory_test,16.0,0.0,1.0,39.0,54.0,1.0,1746.0,39.0,1.0,305.0,1,-0.6397044624420413,-0.3191422152157191
849,Exp1,d11032021,O9Udf,memory_test,17.0,0.0,1.0,12.0,29.0,1.0,1577.0,12.0,1.0,342.0,1,-0.7769489474218706,-0.27641885534965505
850,Exp1,d11032021,O9Udf,memory_test,18.0,0.0,0.0,49.0,29.0,0.0,1364.0,,,,1,-0.9499257243491112,
851,Exp1,d11032021,O9Udf,memory_test,19.0,1.0,0.0,55.0,19.0,0.0,3006.0,,,,1,0.38353844332473397,
852,Exp1,d11032021,O9Udf,memory_test,20.0,0.0,1.0,47.0,57.0,1.0,1312.0,57.0,0.0,351.0,1,-0.9921547966505971,-0.26602668673358537
853,Exp1,d11032021,O9Udf,memory_test,21.0,0.0,1.0,51.0,17.0,1.0,1864.0,51.0,1.0,310.0,1,-0.5438769522194385,-0.31336878820679154
854,Exp1,d11032021,O9Udf,memory_test,22.0,1.0,0.0,44.0,40.0,1.0,1522.0,,1.0,382.0,0,-0.8216143123561346,-0.2302314392782344
855,Exp1,d11032021,O9Udf,memory_test,23.0,1.0,1.0,56.0,40.0,0.0,1793.0,56.0,,,0,-0.601535877861852,
856,Exp1,d11032021,O9Udf,memory_test,24.0,1.0,1.0,55.0,26.0,0.0,2291.0,55.0,,,0,-0.197111300820698,
857,Exp1,d11032021,O9Udf,memory_test,25.0,0.0,1.0,49.0,31.0,1.0,3054.0,49.0,1.0,275.0,1,0.4225191254491826,-0.35378277726928464
858,Exp1,d11032021,O9Udf,memory_test,26.0,1.0,1.0,18.0,10.0,1.0,1793.0,10.0,0.0,399.0,1,-0.601535877861852,-0.2106017874478806
859,Exp1,d11032021,O9Udf,memory_test,27.0,1.0,0.0,36.0,48.0,0.0,2005.0,,,,1,-0.4293711984788708,
860,Exp1,d11032021,O9Udf,memory_test,28.0,0.0,1.0,2.0,6.0,0.0,1456.0,2.0,,,0,-0.8752127502772514,
861,Exp1,d11032021,O9Udf,memory_test,29.0,0.0,0.0,54.0,12.0,1.0,2413.0,,0.0,333.0,0,-0.09803540042105785,-0.28681102396572467
862,Exp1,d11032021,O9Udf,memory_test,30.0,1.0,0.0,18.0,9.0,0.0,2327.0,,,,1,-0.16787578922736157,
863,Exp1,d11032021,O9Udf,memory_test,31.0,1.0,0.0,53.0,56.0,1.0,2109.0,,1.0,293.0,0,-0.3449130538758989,-0.33299844003714535
864,Exp1,d11032021,vw1Wb,memory_test,0.0,0.0,0.0,27.0,19.0,1.0,1538.0,,1.0,2408.0,0,0.12401912073245164,3.7502949878736973
865,Exp1,d11032021,vw1Wb,memory_test,1.0,1.0,1.0,54.0,12.0,1.0,1463.0,54.0,1.0,691.0,1,-0.03329900281822697,0.30057009010281005
866,Exp1,d11032021,vw1Wb,memory_test,2.0,1.0,1.0,8.0,58.0,0.0,1285.0,58.0,,,0,-0.40666734937850424,
867,Exp1,d11032021,vw1Wb,memory_test,3.0,0.0,0.0,42.0,50.0,1.0,3329.0,,1.0,288.0,0,3.880775911122657,-0.5091207274869789
868,Exp1,d11032021,vw1Wb,memory_test,4.0,1.0,0.0,8.0,57.0,1.0,1312.0,,0.0,1171.0,0,-0.35003282490025994,1.2649661011278688
869,Exp1,d11032021,vw1Wb,memory_test,5.0,1.0,1.0,9.0,45.0,1.0,1027.0,9.0,1.0,437.0,1,-0.9478416943928387,-0.20975613239795024
870,Exp1,d11032021,vw1Wb,memory_test,6.0,1.0,0.0,40.0,54.0,1.0,1785.0,,0.0,306.0,0,0.6421201409593532,-0.4729558770735392
871,Exp1,d11032021,vw1Wb,memory_test,7.0,0.0,1.0,44.0,42.0,1.0,1345.0,44.0,0.0,341.0,1,-0.28081285053796134,-0.40263533460296197
872,Exp1,d11032021,vw1Wb,memory_test,8.0,1.0,0.0,31.0,25.0,1.0,1481.0,,1.0,349.0,0,0.004457346833935894,-0.38656206775254437
873,Exp1,d11032021,vw1Wb,memory_test,9.0,0.0,1.0,50.0,27.0,1.0,2423.0,50.0,0.0,303.0,1,1.9803729786304594,-0.4789833521424458
874,Exp1,d11032021,vw1Wb,memory_test,10.0,1.0,0.0,55.0,45.0,0.0,850.0,,,,1,-1.3191124659724403,
875,Exp1,d11032021,vw1Wb,memory_test,11.0,1.0,1.0,26.0,31.0,1.0,2079.0,26.0,0.0,484.0,1,1.2588071852780134,-0.11532568965174657
876,Exp1,d11032021,vw1Wb,memory_test,12.0,0.0,1.0,49.0,41.0,0.0,1180.0,41.0,,,0,-0.6269127223494543,
877,Exp1,d11032021,vw1Wb,memory_test,13.0,1.0,1.0,57.0,7.0,0.0,1419.0,57.0,,,0,-0.12559230196795843,
878,Exp1,d11032021,vw1Wb,memory_test,14.0,1.0,0.0,26.0,7.0,1.0,1492.0,,0.0,524.0,0,0.027530671621368758,-0.03495935539965833
879,Exp1,d11032021,vw1Wb,memory_test,15.0,0.0,0.0,51.0,20.0,1.0,2009.0,,1.0,327.0,0,1.1119769366307133,-0.4307635515911929
880,Exp1,d11032021,vw1Wb,memory_test,16.0,1.0,1.0,15.0,38.0,0.0,1534.0,38.0,,,0,0.11562882080974879,
881,Exp1,d11032021,vw1Wb,memory_test,17.0,1.0,0.0,58.0,15.0,0.0,1600.0,,,,1,0.254068769534346,
882,Exp1,d11032021,vw1Wb,memory_test,18.0,1.0,1.0,25.0,10.0,0.0,1532.0,25.0,,,0,0.11143367084839735,
883,Exp1,d11032021,vw1Wb,memory_test,19.0,1.0,0.0,9.0,10.0,1.0,1041.0,,1.0,334.0,0,-0.9184756446633787,-0.4166994430970774
884,Exp1,d11032021,vw1Wb,memory_test,20.0,0.0,0.0,24.0,44.0,0.0,1493.0,,,,1,0.029628246602044474,
885,Exp1,d11032021,vw1Wb,memory_test,21.0,0.0,0.0,5.0,49.0,1.0,1083.0,,0.0,918.0,0,-0.8303774954749986,0.7566490369834108
