,Exp,group,PID,phase,block,trial,stimulus_id,reward_type,reward_amount,see_reward_rt,zscored_see_reward_rt,register_reward_response,register_reward_rt,zscored_register_reward_rt,register_reward_acc
0,Exp1,d11032021,ZGrrY,reward_learning,1.0,0.0,56.0,1.0,158.0,1210.0,2.9428665779782093,1.0,1220.0,0.7187243735686539,1
1,Exp1,d11032021,ZGrrY,reward_learning,1.0,1.0,3.0,1.0,152.0,1032.0,2.1478669086320448,1.0,1551.0,1.4910141469033424,1
2,Exp1,d11032021,ZGrrY,reward_learning,1.0,2.0,5.0,-1.0,0.0,1064.0,2.2907881975032653,-1.0,1588.0,1.5773426109921143,1
3,Exp1,d11032021,ZGrrY,reward_learning,1.0,3.0,32.0,-1.0,0.0,789.0,1.0625583712662132,-1.0,1268.0,0.8307180567108443,1
4,Exp1,d11032021,ZGrrY,reward_learning,1.0,4.0,57.0,-1.0,0.0,1509.0,4.278287370868677,-1.0,1428.0,1.2040303338514793,1
5,Exp1,d11032021,ZGrrY,reward_learning,1.0,5.0,27.0,1.0,150.0,1235.0,3.05452383490885,1.0,1505.0,1.38368686722541,1
6,Exp1,d11032021,ZGrrY,reward_learning,1.0,6.0,39.0,-1.0,0.0,703.0,0.6784574074248079,-1.0,1206.0,0.6860595493188483,1
7,Exp1,d11032021,ZGrrY,reward_learning,1.0,7.0,31.0,-1.0,0.0,803.0,1.1250864351473722,-1.0,1587.0,1.5750094092599853,1
8,Exp1,d11032021,ZGrrY,reward_learning,1.0,8.0,12.0,-1.0,0.0,757.0,0.9196370823949926,-1.0,1451.0,1.2576939736904456,1
9,Exp1,d11032021,ZGrrY,reward_learning,1.0,9.0,23.0,1.0,154.0,649.0,0.43727773245462315,1.0,1586.0,1.5726762075278562,1
10,Exp1,d11032021,ZGrrY,reward_learning,1.0,10.0,27.0,1.0,150.0,514.0,-0.1656714549708387,1.0,1350.0,1.0220405987454197,1
11,Exp1,d11032021,ZGrrY,reward_learning,1.0,11.0,18.0,-1.0,0.0,639.0,0.3926148296823667,-1.0,1068.0,0.3640777102850507,1
12,Exp1,d11032021,ZGrrY,reward_learning,1.0,12.0,39.0,-1.0,0.0,601.0,0.22289579914779226,-1.0,1698.0,1.8339948015263008,1
13,Exp1,d11032021,ZGrrY,reward_learning,1.0,13.0,23.0,1.0,154.0,548.0,-0.013817585545166834,1.0,1434.0,1.218029544244253,1
14,Exp1,d11032021,ZGrrY,reward_learning,1.0,14.0,32.0,-1.0,0.0,538.0,-0.05848048831742327,-1.0,1712.0,1.8666596257761063,1
15,Exp1,d11032021,ZGrrY,reward_learning,1.0,15.0,5.0,-1.0,0.0,588.0,0.1648340255438589,-1.0,1646.0,1.7126683114555943,1
16,Exp1,d11032021,ZGrrY,reward_learning,1.0,16.0,3.0,1.0,152.0,619.0,0.30328902413785386,1.0,1802.0,2.0766477816677136,1
17,Exp1,d11032021,ZGrrY,reward_learning,1.0,17.0,48.0,1.0,160.0,530.0,-0.09421081053522842,1.0,1383.0,1.0990362559056757,1
18,Exp1,d11032021,ZGrrY,reward_learning,1.0,18.0,35.0,1.0,147.0,656.0,0.4685417643952027,1.0,1429.0,1.2063635355836082,1
19,Exp1,d11032021,ZGrrY,reward_learning,1.0,19.0,31.0,-1.0,0.0,555.0,0.01744644639541267,-1.0,1387.0,1.1083690628341916,1
20,Exp1,d11032021,ZGrrY,reward_learning,1.0,20.0,58.0,1.0,147.0,570.0,0.08444080055379732,1.0,1649.0,1.7196679166519813,1
21,Exp1,d11032021,ZGrrY,reward_learning,1.0,21.0,56.0,1.0,158.0,635.0,0.37474966857346415,1.0,1550.0,1.4886809451712135,1
22,Exp1,d11032021,ZGrrY,reward_learning,1.0,22.0,58.0,1.0,147.0,447.0,-0.46491290354495685,1.0,1512.0,1.4000192793503126,1
23,Exp1,d11032021,ZGrrY,reward_learning,1.0,23.0,17.0,-1.0,0.0,634.0,0.3702833782962385,-1.0,1661.0,1.747666337437529,1
24,Exp1,d11032021,ZGrrY,reward_learning,1.0,24.0,48.0,1.0,160.0,563.0,0.053176768613217816,1.0,1734.0,1.9179900638829437,1
25,Exp1,d11032021,ZGrrY,reward_learning,1.0,25.0,17.0,-1.0,0.0,627.0,0.339019346355659,-1.0,1386.0,1.1060358611020626,1
26,Exp1,d11032021,ZGrrY,reward_learning,1.0,26.0,57.0,-1.0,0.0,535.0,-0.0718793591491002,-1.0,1312.0,0.933378932924519,1
27,Exp1,d11032021,ZGrrY,reward_learning,1.0,27.0,1.0,1.0,158.0,532.0,-0.08527822998077712,1.0,1316.0,0.9427117398530348,1
28,Exp1,d11032021,ZGrrY,reward_learning,1.0,28.0,1.0,1.0,158.0,642.0,0.4060137005140437,,,,0
29,Exp1,d11032021,ZGrrY,reward_learning,1.0,29.0,35.0,1.0,147.0,1041.0,2.1880635211270754,1.0,802.0,-0.2565539504612549,1
30,Exp1,d11032021,ZGrrY,reward_learning,1.0,30.0,18.0,-1.0,0.0,420.0,-0.5855027410300492,-1.0,1171.0,0.6043974886943344,1
31,Exp1,d11032021,ZGrrY,reward_learning,1.0,31.0,12.0,-1.0,0.0,516.0,-0.15673887441638742,-1.0,1394.0,1.1247014749590944,1
32,Exp1,d11032021,ZGrrY,reward_learning,2.0,32.0,35.0,1.0,147.0,1386.0,3.7289336667699224,1.0,1271.0,0.8377176619072313,1
33,Exp1,d11032021,ZGrrY,reward_learning,2.0,33.0,31.0,-1.0,0.0,393.0,-0.7060925785151416,-1.0,975.0,0.14708994919705665,1
34,Exp1,d11032021,ZGrrY,reward_learning,2.0,34.0,35.0,1.0,147.0,481.0,-0.31305903411928493,1.0,1184.0,0.634729111212011,1
35,Exp1,d11032021,ZGrrY,reward_learning,2.0,35.0,23.0,1.0,154.0,347.0,-0.9115419312675211,1.0,945.0,0.0770938972331876,1
36,Exp1,d11032021,ZGrrY,reward_learning,2.0,36.0,3.0,1.0,152.0,509.0,-0.18800290635696693,1.0,966.0,0.12609113360789592,1
37,Exp1,d11032021,ZGrrY,reward_learning,2.0,37.0,39.0,-1.0,0.0,420.0,-0.5855027410300492,-1.0,846.0,-0.15389307424758025,1
38,Exp1,d11032021,ZGrrY,reward_learning,2.0,38.0,12.0,-1.0,0.0,526.0,-0.112075971644131,-1.0,999.0,0.2030867907681519,1
39,Exp1,d11032021,ZGrrY,reward_learning,2.0,39.0,31.0,-1.0,0.0,254.0,-1.326906927049506,-1.0,1021.0,0.2544172288749892,1
40,Exp1,d11032021,ZGrrY,reward_learning,2.0,40.0,17.0,-1.0,0.0,260.0,-1.3001091853861522,-1.0,798.0,-0.26588675738977074,1
41,Exp1,d11032021,ZGrrY,reward_learning,2.0,41.0,27.0,1.0,150.0,270.0,-1.2554462826138957,1.0,885.0,-0.0628982066945505,1
42,Exp1,d11032021,ZGrrY,reward_learning,2.0,42.0,57.0,-1.0,0.0,369.0,-0.813283545168557,-1.0,882.0,-0.06989781189093741,1
43,Exp1,d11032021,ZGrrY,reward_learning,2.0,43.0,27.0,1.0,150.0,241.0,-1.3849687006534395,1.0,728.0,-0.42921087863879853,1
44,Exp1,d11032021,ZGrrY,reward_learning,2.0,44.0,58.0,1.0,147.0,359.0,-0.8579464479408134,1.0,660.0,-0.5878685964235684,1
45,Exp1,d11032021,ZGrrY,reward_learning,2.0,45.0,57.0,-1.0,0.0,446.0,-0.46937919382218246,-1.0,620.0,-0.6811966657087271,1
46,Exp1,d11032021,ZGrrY,reward_learning,2.0,46.0,56.0,1.0,158.0,529.0,-0.09867710081245407,1.0,700.0,-0.4945405271384096,1
47,Exp1,d11032021,ZGrrY,reward_learning,2.0,47.0,48.0,1.0,160.0,503.0,-0.21480064802032078,1.0,657.0,-0.5948682016199552,1
48,Exp1,d11032021,ZGrrY,reward_learning,2.0,48.0,23.0,1.0,154.0,488.0,-0.28179500217870546,1.0,583.0,-0.767525129797499,1
49,Exp1,d11032021,ZGrrY,reward_learning,2.0,49.0,1.0,1.0,158.0,429.0,-0.5453061285350184,1.0,552.0,-0.839854383493497,1
50,Exp1,d11032021,ZGrrY,reward_learning,2.0,50.0,5.0,-1.0,0.0,340.0,-0.9428059632081006,-1.0,700.0,-0.4945405271384096,1
51,Exp1,d11032021,ZGrrY,reward_learning,2.0,51.0,5.0,-1.0,0.0,666.0,0.513204667167459,-1.0,846.0,-0.15389307424758025,1
52,Exp1,d11032021,ZGrrY,reward_learning,2.0,52.0,48.0,1.0,160.0,426.0,-0.5587049993666954,1.0,611.0,-0.7021954812978878,1
53,Exp1,d11032021,ZGrrY,reward_learning,2.0,53.0,1.0,1.0,158.0,364.0,-0.8356149965546852,1.0,642.0,-0.6298662276018898,1
54,Exp1,d11032021,ZGrrY,reward_learning,2.0,54.0,18.0,-1.0,0.0,527.0,-0.10760968136690535,-1.0,711.0,-0.468875308084991,1
55,Exp1,d11032021,ZGrrY,reward_learning,2.0,55.0,58.0,1.0,147.0,397.0,-0.6882274174062389,1.0,318.0,-1.3858235888116754,1
56,Exp1,d11032021,ZGrrY,reward_learning,2.0,56.0,32.0,-1.0,0.0,500.0,-0.2281995188519977,-1.0,637.0,-0.6415322362625346,1
57,Exp1,d11032021,ZGrrY,reward_learning,2.0,57.0,3.0,1.0,152.0,493.0,-0.2594635507925772,1.0,645.0,-0.622866622405503,1
58,Exp1,d11032021,ZGrrY,reward_learning,2.0,58.0,39.0,-1.0,0.0,549.0,-0.00935129526794119,-1.0,976.0,0.14942315092918562,1
59,Exp1,d11032021,ZGrrY,reward_learning,2.0,59.0,12.0,-1.0,0.0,465.0,-0.3845196785548952,-1.0,704.0,-0.4852077202098938,1
60,Exp1,d11032021,ZGrrY,reward_learning,2.0,60.0,17.0,-1.0,0.0,540.0,-0.04954790776297198,-1.0,675.0,-0.5528705704416338,1
61,Exp1,d11032021,ZGrrY,reward_learning,2.0,61.0,56.0,1.0,158.0,536.0,-0.06741306887187455,1.0,841.0,-0.1655590829082251,1
62,Exp1,d11032021,ZGrrY,reward_learning,2.0,62.0,32.0,-1.0,0.0,533.0,-0.08081193970355148,-1.0,515.0,-0.9261828475822688,1
63,Exp1,d11032021,ZGrrY,reward_learning,2.0,63.0,18.0,-1.0,0.0,368.0,-0.8177498354457826,-1.0,728.0,-0.42921087863879853,1
64,Exp1,d11032021,ZGrrY,reward_learning,3.0,64.0,3.0,1.0,152.0,739.0,0.839243857404931,1.0,915.0,0.007097845269318548,1
65,Exp1,d11032021,ZGrrY,reward_learning,3.0,65.0,35.0,1.0,147.0,461.0,-0.4023848396637978,1.0,444.0,-1.0918401705634255,1
66,Exp1,d11032021,ZGrrY,reward_learning,3.0,66.0,31.0,-1.0,0.0,473.0,-0.3487893563370901,-1.0,429.0,-1.12683819654536,1
67,Exp1,d11032021,ZGrrY,reward_learning,3.0,67.0,31.0,-1.0,0.0,426.0,-0.5587049993666954,-1.0,402.0,-1.1898346433128422,1
68,Exp1,d11032021,ZGrrY,reward_learning,3.0,68.0,23.0,1.0,154.0,435.0,-0.5185083868716646,1.0,492.0,-0.979846487421235,1
69,Exp1,d11032021,ZGrrY,reward_learning,3.0,69.0,27.0,1.0,150.0,534.0,-0.07634564942632584,1.0,371.0,-1.2621638970088402,1
70,Exp1,d11032021,ZGrrY,reward_learning,3.0,70.0,18.0,-1.0,0.0,462.0,-0.3979185493865722,-1.0,494.0,-0.9751800839569771,1
71,Exp1,d11032021,ZGrrY,reward_learning,3.0,71.0,57.0,-1.0,0.0,375.0,-0.7864858035052031,-1.0,589.0,-0.7535259194047251,1
72,Exp1,d11032021,ZGrrY,reward_learning,3.0,72.0,18.0,-1.0,0.0,355.0,-0.875811609049716,-1.0,394.0,-1.208500257169874,1
73,Exp1,d11032021,ZGrrY,reward_learning,3.0,73.0,12.0,-1.0,0.0,516.0,-0.15673887441638742,-1.0,483.0,-1.0008453030103959,1
74,Exp1,d11032021,ZGrrY,reward_learning,3.0,74.0,39.0,-1.0,0.0,527.0,-0.10760968136690535,-1.0,486.0,-0.9938456978140089,1
75,Exp1,d11032021,ZGrrY,reward_learning,3.0,75.0,17.0,-1.0,0.0,411.0,-0.62569935352508,-1.0,575.0,-0.7861907436545307,1
76,Exp1,d11032021,ZGrrY,reward_learning,3.0,76.0,39.0,-1.0,0.0,391.0,-0.7150251590695929,-1.0,385.0,-1.2294990727590347,1
77,Exp1,d11032021,ZGrrY,reward_learning,3.0,77.0,57.0,-1.0,0.0,436.0,-0.5140420965944389,-1.0,381.0,-1.2388318796875506,1
78,Exp1,d11032021,ZGrrY,reward_learning,3.0,78.0,1.0,1.0,158.0,404.0,-0.6569633854656595,1.0,896.0,-0.03723298764113185,1
79,Exp1,d11032021,ZGrrY,reward_learning,3.0,79.0,27.0,1.0,150.0,597.0,0.20503063803888968,1.0,572.0,-0.7931903488509175,1
80,Exp1,d11032021,ZGrrY,reward_learning,3.0,80.0,48.0,1.0,160.0,411.0,-0.62569935352508,1.0,524.0,-0.905184031993108,1
81,Exp1,d11032021,ZGrrY,reward_learning,3.0,81.0,12.0,-1.0,0.0,772.0,0.9866314365533773,-1.0,686.0,-0.5272053513882152,1
82,Exp1,d11032021,ZGrrY,reward_learning,3.0,82.0,48.0,1.0,160.0,355.0,-0.875811609049716,1.0,670.0,-0.5645365791022787,1
83,Exp1,d11032021,ZGrrY,reward_learning,3.0,83.0,17.0,-1.0,0.0,478.0,-0.3264579049509619,-1.0,698.0,-0.4992069306026676,1
84,Exp1,d11032021,ZGrrY,reward_learning,3.0,84.0,58.0,1.0,147.0,383.0,-0.750755481287398,1.0,630.0,-0.6578646483874374,1
85,Exp1,d11032021,ZGrrY,reward_learning,3.0,85.0,5.0,-1.0,0.0,446.0,-0.46937919382218246,-1.0,726.0,-0.4338772821030565,1
86,Exp1,d11032021,ZGrrY,reward_learning,3.0,86.0,56.0,1.0,158.0,392.0,-0.7105588687923672,1.0,637.0,-0.6415322362625346,1
87,Exp1,d11032021,ZGrrY,reward_learning,3.0,87.0,3.0,1.0,152.0,327.0,-1.000867736812034,1.0,476.0,-1.0171777151352985,1
88,Exp1,d11032021,ZGrrY,reward_learning,3.0,88.0,58.0,1.0,147.0,556.0,0.021912736672638312,1.0,464.0,-1.0451761359208462,1
89,Exp1,d11032021,ZGrrY,reward_learning,3.0,89.0,1.0,1.0,158.0,468.0,-0.3711208077232183,1.0,382.0,-1.2364986779554215,1
90,Exp1,d11032021,ZGrrY,reward_learning,3.0,90.0,23.0,1.0,154.0,500.0,-0.2281995188519977,1.0,455.0,-1.066174951510007,1
91,Exp1,d11032021,ZGrrY,reward_learning,3.0,91.0,56.0,1.0,158.0,395.0,-0.6971599979606903,1.0,398.0,-1.199167450241358,1
92,Exp1,d11032021,ZGrrY,reward_learning,3.0,92.0,32.0,-1.0,0.0,550.0,-0.004885004990715548,-1.0,460.0,-1.0545089428493621,1
93,Exp1,d11032021,ZGrrY,reward_learning,3.0,93.0,32.0,-1.0,0.0,550.0,-0.004885004990715548,-1.0,403.0,-1.1875014415807132,1
94,Exp1,d11032021,ZGrrY,reward_learning,3.0,94.0,5.0,-1.0,0.0,543.0,-0.03614903693129505,-1.0,513.0,-0.9308492510465267,1
95,Exp1,d11032021,ZGrrY,reward_learning,3.0,95.0,35.0,1.0,147.0,622.0,0.31668789496953076,1.0,599.0,-0.7301939020834355,1
96,Exp1,d11042021,l6WpQ,reward_learning,1.0,0.0,43.0,1.0,158.0,1594.0,5.156208821277564,,,,0
97,Exp1,d11042021,l6WpQ,reward_learning,1.0,1.0,30.0,1.0,152.0,1004.0,2.5802192325998257,1.0,974.0,3.3162136189096545,1
98,Exp1,d11042021,l6WpQ,reward_learning,1.0,2.0,38.0,-1.0,0.0,1015.0,2.628246157134495,-1.0,588.0,0.680178905361206,1
99,Exp1,d11042021,l6WpQ,reward_learning,1.0,3.0,20.0,1.0,150.0,890.0,2.082485651058703,1.0,519.0,0.20897062755073206,1
100,Exp1,d11042021,l6WpQ,reward_learning,1.0,4.0,32.0,1.0,142.0,690.0,1.209268841337436,1.0,791.0,2.0664873168905715,1
101,Exp1,d11042021,l6WpQ,reward_learning,1.0,5.0,10.0,1.0,153.0,417.0,0.017327896067906395,1.0,600.0,0.7621281710673754,1
102,Exp1,d11042021,l6WpQ,reward_learning,1.0,6.0,47.0,-1.0,0.0,530.0,0.5106953935604224,-1.0,580.0,0.625546061557093,1
103,Exp1,d11042021,l6WpQ,reward_learning,1.0,7.0,19.0,-1.0,0.0,594.0,0.7901247726712278,-1.0,884.0,2.701594126113384,1
104,Exp1,d11042021,l6WpQ,reward_learning,1.0,8.0,0.0,1.0,160.0,448.0,0.1526765015747028,1.0,587.0,0.6733497998856919,1
105,Exp1,d11042021,l6WpQ,reward_learning,1.0,9.0,1.0,-1.0,0.0,455.0,0.18323908991494714,-1.0,958.0,3.2069479313014284,1
106,Exp1,d11042021,l6WpQ,reward_learning,1.0,10.0,23.0,-1.0,0.0,455.0,0.18323908991494714,-1.0,534.0,0.3114072096834438,1
107,Exp1,d11042021,l6WpQ,reward_learning,1.0,11.0,36.0,-1.0,0.0,565.0,0.6635083352616441,-1.0,529.0,0.2772616823058732,1
108,Exp1,d11042021,l6WpQ,reward_learning,1.0,12.0,56.0,1.0,149.0,438.0,0.10901566108863944,1.0,675.0,1.274311081730934,1
109,Exp1,d11042021,l6WpQ,reward_learning,1.0,13.0,43.0,1.0,158.0,487.0,0.32295377947034987,1.0,653.0,1.1240707612696235,1
110,Exp1,d11042021,l6WpQ,reward_learning,1.0,14.0,56.0,1.0,149.0,463.0,0.21816776230379784,1.0,424.0,-0.4397943926231088,1
111,Exp1,d11042021,l6WpQ,reward_learning,1.0,15.0,40.0,-1.0,0.0,426.0,0.05662265250536341,-1.0,526.0,0.2567743658793309,1
112,Exp1,d11042021,l6WpQ,reward_learning,1.0,16.0,38.0,-1.0,0.0,48.0,-1.5937571178678314,-1.0,798.0,2.1142910552191703,1
113,Exp1,d11042021,l6WpQ,reward_learning,1.0,17.0,36.0,-1.0,0.0,308.0,-0.4585752652301842,-1.0,578.0,0.6118878506060649,1
114,Exp1,d11042021,l6WpQ,reward_learning,1.0,18.0,55.0,-1.0,0.0,355.0,-0.25336931494568643,-1.0,537.0,0.33189452610998615,1
115,Exp1,d11042021,l6WpQ,reward_learning,1.0,19.0,20.0,1.0,150.0,336.0,-0.3363249118692068,1.0,489.0,0.004097463285308624,1
116,Exp1,d11042021,l6WpQ,reward_learning,1.0,20.0,10.0,1.0,153.0,312.0,-0.4411109290357588,1.0,577.0,0.6050587451305507,1
117,Exp1,d11042021,l6WpQ,reward_learning,1.0,21.0,40.0,-1.0,0.0,430.0,0.07408698869978876,-1.0,531.0,0.29091989325690143,1
118,Exp1,d11042021,l6WpQ,reward_learning,1.0,22.0,57.0,1.0,142.0,284.0,-0.5633612823967362,1.0,476.0,-0.08468090789637486,1
119,Exp1,d11042021,l6WpQ,reward_learning,1.0,23.0,0.0,1.0,160.0,414.0,0.004229643922087387,1.0,613.0,0.8509065422490588,1
120,Exp1,d11042021,l6WpQ,reward_learning,1.0,24.0,19.0,-1.0,0.0,310.0,-0.44984309713297155,-1.0,556.0,0.46164753014475435,1
121,Exp1,d11042021,l6WpQ,reward_learning,1.0,25.0,23.0,-1.0,0.0,266.0,-0.6419507952716503,-1.0,576.0,0.5982296396550366,1
122,Exp1,d11042021,l6WpQ,reward_learning,1.0,26.0,55.0,-1.0,0.0,251.0,-0.7074420560007453,-1.0,517.0,0.19531241659970383,1
123,Exp1,d11042021,l6WpQ,reward_learning,1.0,27.0,57.0,1.0,142.0,286.0,-0.5546291142995236,1.0,421.0,-0.4602817090496512,1
124,Exp1,d11042021,l6WpQ,reward_learning,1.0,28.0,30.0,1.0,152.0,381.0,-0.13985112968192168,1.0,504.0,0.10653404541802035,1
125,Exp1,d11042021,l6WpQ,reward_learning,1.0,29.0,47.0,-1.0,0.0,382.0,-0.13548504563331534,-1.0,425.0,-0.43296528714759475,1
126,Exp1,d11042021,l6WpQ,reward_learning,1.0,30.0,32.0,1.0,142.0,316.0,-0.4236465928413335,1.0,556.0,0.46164753014475435,1
127,Exp1,d11042021,l6WpQ,reward_learning,1.0,31.0,1.0,-1.0,0.0,278.0,-0.5895577866883742,-1.0,663.0,1.1923618160247647,1
128,Exp1,d11042021,l6WpQ,reward_learning,2.0,32.0,23.0,-1.0,0.0,1486.0,4.684671744028079,-1.0,534.0,0.3114072096834438,1
129,Exp1,d11042021,l6WpQ,reward_learning,2.0,33.0,23.0,-1.0,0.0,242.0,-0.7467368124382023,-1.0,478.0,-0.07102269694534664,1
130,Exp1,d11042021,l6WpQ,reward_learning,2.0,34.0,19.0,-1.0,0.0,427.0,0.060988736553969754,-1.0,419.0,-0.4739399200006794,1
131,Exp1,d11042021,l6WpQ,reward_learning,2.0,35.0,55.0,-1.0,0.0,294.0,-0.5197004419106729,-1.0,473.0,-0.10516822432291721,1
132,Exp1,d11042021,l6WpQ,reward_learning,2.0,36.0,0.0,1.0,160.0,286.0,-0.5546291142995236,1.0,636.0,1.0079759681858835,1
133,Exp1,d11042021,l6WpQ,reward_learning,2.0,37.0,57.0,1.0,142.0,336.0,-0.3363249118692068,1.0,507.0,0.1270213618445627,1
134,Exp1,d11042021,l6WpQ,reward_learning,2.0,38.0,32.0,1.0,142.0,300.0,-0.4935039376190349,1.0,560.0,0.48896395204681076,1
135,Exp1,d11042021,l6WpQ,reward_learning,2.0,39.0,32.0,1.0,142.0,232.0,-0.7903976529242657,1.0,487.0,-0.009560747665719606,1
136,Exp1,d11042021,l6WpQ,reward_learning,2.0,40.0,20.0,1.0,150.0,236.0,-0.7729333167298403,1.0,415.0,-0.5012563419027358,1
137,Exp1,d11042021,l6WpQ,reward_learning,2.0,41.0,1.0,-1.0,0.0,477.0,0.27929293898428653,-1.0,471.0,-0.11882643527394544,1
138,Exp1,d11042021,l6WpQ,reward_learning,2.0,42.0,47.0,-1.0,0.0,235.0,-0.7772994007784467,-1.0,713.0,1.5338170898004704,1
139,Exp1,d11042021,l6WpQ,reward_learning,2.0,43.0,1.0,-1.0,0.0,264.0,-0.650682963368863,-1.0,365.0,-0.8427116156784417,1
140,Exp1,d11042021,l6WpQ,reward_learning,2.0,44.0,55.0,-1.0,0.0,260.0,-0.6681472995632883,-1.0,473.0,-0.10516822432291721,1
141,Exp1,d11042021,l6WpQ,reward_learning,2.0,45.0,36.0,-1.0,0.0,262.0,-0.6594151314660757,-1.0,448.0,-0.2758958612107701,1
142,Exp1,d11042021,l6WpQ,reward_learning,2.0,46.0,20.0,1.0,150.0,265.0,-0.6463168793202566,1.0,618.0,0.8850520696266294,1
143,Exp1,d11042021,l6WpQ,reward_learning,2.0,47.0,10.0,1.0,153.0,278.0,-0.5895577866883742,1.0,530.0,0.28409078778138735,1
144,Exp1,d11042021,l6WpQ,reward_learning,2.0,48.0,0.0,1.0,160.0,245.0,-0.7336385602923834,1.0,529.0,0.2772616823058732,1
145,Exp1,d11042021,l6WpQ,reward_learning,2.0,49.0,47.0,-1.0,0.0,290.0,-0.5371647781050982,-1.0,429.0,-0.4056488652455383,1
146,Exp1,d11042021,l6WpQ,reward_learning,2.0,50.0,38.0,-1.0,0.0,311.0,-0.4454770130843652,-1.0,474.0,-0.0983391188474031,1
147,Exp1,d11042021,l6WpQ,reward_learning,2.0,51.0,36.0,-1.0,0.0,245.0,-0.7336385602923834,-1.0,529.0,0.2772616823058732,1
148,Exp1,d11042021,l6WpQ,reward_learning,2.0,52.0,43.0,1.0,158.0,337.0,-0.33195882782060043,1.0,597.0,0.7416408546408331,1
149,Exp1,d11042021,l6WpQ,reward_learning,2.0,53.0,38.0,-1.0,0.0,286.0,-0.5546291142995236,-1.0,399.0,-0.6105220295109617,1
150,Exp1,d11042021,l6WpQ,reward_learning,2.0,54.0,40.0,-1.0,0.0,264.0,-0.650682963368863,-1.0,488.0,-0.0027316421902054905,1
151,Exp1,d11042021,l6WpQ,reward_learning,2.0,55.0,56.0,1.0,149.0,304.0,-0.47603960142460955,1.0,488.0,-0.0027316421902054905,1
152,Exp1,d11042021,l6WpQ,reward_learning,2.0,56.0,30.0,1.0,152.0,349.0,-0.27956581923732443,1.0,428.0,-0.41247797072105236,1
153,Exp1,d11042021,l6WpQ,reward_learning,2.0,57.0,10.0,1.0,153.0,239.0,-0.7598350645840214,1.0,505.0,0.11336315089353446,1
154,Exp1,d11042021,l6WpQ,reward_learning,2.0,58.0,40.0,-1.0,0.0,243.0,-0.7423707283895961,-1.0,481.0,-0.050535380518804296,1
155,Exp1,d11042021,l6WpQ,reward_learning,2.0,59.0,57.0,1.0,142.0,251.0,-0.7074420560007453,1.0,519.0,0.20897062755073206,1
156,Exp1,d11042021,l6WpQ,reward_learning,2.0,60.0,19.0,-1.0,0.0,268.0,-0.6332186271744377,-1.0,432.0,-0.38516154881899595,1
157,Exp1,d11042021,l6WpQ,reward_learning,2.0,61.0,56.0,1.0,149.0,220.0,-0.8427906615075418,1.0,406.0,-0.5627182911823629,1
158,Exp1,d11042021,l6WpQ,reward_learning,2.0,62.0,30.0,1.0,152.0,243.0,-0.7423707283895961,1.0,496.0,0.051901201613907426,1
159,Exp1,d11042021,l6WpQ,reward_learning,2.0,63.0,43.0,1.0,158.0,271.0,-0.6201203750286186,1.0,356.0,-0.9041735649580687,1
160,Exp1,d11042021,l6WpQ,reward_learning,3.0,64.0,20.0,1.0,150.0,696.0,1.235465345629074,1.0,415.0,-0.5012563419027358,1
161,Exp1,d11042021,l6WpQ,reward_learning,3.0,65.0,38.0,-1.0,0.0,394.0,-0.08309203705003933,-1.0,405.0,-0.569547396657877,1
162,Exp1,d11042021,l6WpQ,reward_learning,3.0,66.0,36.0,-1.0,0.0,285.0,-0.5589951983481299,-1.0,393.0,-0.6514966623640464,1
163,Exp1,d11042021,l6WpQ,reward_learning,3.0,67.0,43.0,1.0,158.0,303.0,-0.4804056854732159,1.0,491.0,0.017755674236336855,1
164,Exp1,d11042021,l6WpQ,reward_learning,3.0,68.0,10.0,1.0,153.0,380.0,-0.14421721373052804,1.0,463.0,-0.17345927907805836,1
165,Exp1,d11042021,l6WpQ,reward_learning,3.0,69.0,20.0,1.0,150.0,333.0,-0.3494231640150258,1.0,388.0,-0.685642189741617,1
166,Exp1,d11042021,l6WpQ,reward_learning,3.0,70.0,0.0,1.0,160.0,291.0,-0.5327986940564919,1.0,378.0,-0.7539332444967581,1
167,Exp1,d11042021,l6WpQ,reward_learning,3.0,71.0,43.0,1.0,158.0,318.0,-0.4149144247441208,1.0,353.0,-0.924660881384611,1
168,Exp1,d11042021,l6WpQ,reward_learning,3.0,72.0,19.0,-1.0,0.0,290.0,-0.5371647781050982,-1.0,407.0,-0.5558891857068488,1
169,Exp1,d11042021,l6WpQ,reward_learning,3.0,73.0,30.0,1.0,152.0,598.0,0.8075891088656532,1.0,210.0,-1.9012229643831293,1
170,Exp1,d11042021,l6WpQ,reward_learning,3.0,74.0,56.0,1.0,149.0,535.0,0.532525813803454,1.0,214.0,-1.873906542481073,1
171,Exp1,d11042021,l6WpQ,reward_learning,3.0,75.0,57.0,1.0,142.0,672.0,1.130679328462522,1.0,328.0,-1.0953885182724639,1
172,Exp1,d11042021,l6WpQ,reward_learning,3.0,76.0,40.0,-1.0,0.0,400.0,-0.05689553275840131,-1.0,420.0,-0.4671108145251653,1
173,Exp1,d11042021,l6WpQ,reward_learning,3.0,77.0,23.0,-1.0,0.0,251.0,-0.7074420560007453,-1.0,419.0,-0.4739399200006794,1
174,Exp1,d11042021,l6WpQ,reward_learning,3.0,78.0,57.0,1.0,142.0,383.0,-0.131118961584709,1.0,390.0,-0.6719839787905888,1
175,Exp1,d11042021,l6WpQ,reward_learning,3.0,79.0,55.0,-1.0,0.0,394.0,-0.08309203705003933,-1.0,232.0,-1.7509826439218188,1
176,Exp1,d11042021,l6WpQ,reward_learning,3.0,80.0,38.0,-1.0,0.0,450.0,0.16140866967191547,-1.0,300.0,-1.286603471586859,1
177,Exp1,d11042021,l6WpQ,reward_learning,3.0,81.0,10.0,1.0,153.0,484.0,0.30985552732453087,1.0,355.0,-0.9110026704335827,1
178,Exp1,d11042021,l6WpQ,reward_learning,3.0,82.0,56.0,1.0,149.0,413.0,-0.000136440126518948,1.0,213.0,-1.880735647956587,1
179,Exp1,d11042021,l6WpQ,reward_learning,3.0,83.0,1.0,-1.0,0.0,499.0,0.3753467880536259,-1.0,354.0,-0.9178317759090969,1
180,Exp1,d11042021,l6WpQ,reward_learning,3.0,84.0,36.0,-1.0,0.0,468.0,0.2399981825468295,-1.0,428.0,-0.41247797072105236,1
181,Exp1,d11042021,l6WpQ,reward_learning,3.0,85.0,23.0,-1.0,0.0,547.0,0.58491882238673,-1.0,356.0,-0.9041735649580687,1
182,Exp1,d11042021,l6WpQ,reward_learning,3.0,86.0,47.0,-1.0,0.0,429.0,0.06972090465118243,-1.0,366.0,-0.8358825102029275,1
183,Exp1,d11042021,l6WpQ,reward_learning,3.0,87.0,47.0,-1.0,0.0,512.0,0.43210588068550826,-1.0,323.0,-1.1295340456500345,1
184,Exp1,d11042021,l6WpQ,reward_learning,3.0,88.0,0.0,1.0,160.0,462.0,0.2138016782551915,1.0,353.0,-0.924660881384611,1
185,Exp1,d11042021,l6WpQ,reward_learning,3.0,89.0,19.0,-1.0,0.0,326.0,-0.37998575235527016,-1.0,361.0,-0.8700280375804981,1
186,Exp1,d11042021,l6WpQ,reward_learning,3.0,90.0,30.0,1.0,152.0,475.0,0.27056077088707386,1.0,277.0,-1.4436728975236837,1
187,Exp1,d11042021,l6WpQ,reward_learning,3.0,91.0,32.0,1.0,142.0,646.0,1.0171611431987573,1.0,506.0,0.12019225636904858,1
188,Exp1,d11042021,l6WpQ,reward_learning,3.0,92.0,1.0,-1.0,0.0,485.0,0.3142216113731372,-1.0,873.0,2.6264739658827287,1
189,Exp1,d11042021,l6WpQ,reward_learning,3.0,93.0,55.0,-1.0,0.0,435.0,0.09591740894282044,-1.0,402.0,-0.5900347130844193,1
190,Exp1,d11042021,l6WpQ,reward_learning,3.0,94.0,40.0,-1.0,0.0,328.0,-0.3712535842580575,-1.0,417.0,-0.4875981309517076,1
191,Exp1,d11042021,l6WpQ,reward_learning,3.0,95.0,32.0,1.0,142.0,495.0,0.3578824518592006,1.0,286.0,-1.3822109482440568,1
192,Exp1,d11032021,GCq3m,reward_learning,1.0,0.0,27.0,-1.0,0.0,1375.0,2.8788963143066044,-1.0,723.0,0.220914031249318,1
193,Exp1,d11032021,GCq3m,reward_learning,1.0,1.0,5.0,-1.0,0.0,941.0,0.9795386471394911,-1.0,625.0,-0.37205578501133413,1
194,Exp1,d11032021,GCq3m,reward_learning,1.0,2.0,34.0,1.0,151.0,1069.0,1.5397178669491467,1.0,801.0,0.6928695992935104,1
195,Exp1,d11032021,GCq3m,reward_learning,1.0,3.0,33.0,-1.0,0.0,1053.0,1.4696954644729396,-1.0,603.0,-0.5051714580494397,1
196,Exp1,d11032021,GCq3m,reward_learning,1.0,4.0,3.0,1.0,157.0,865.0,0.6469322353775081,1.0,843.0,0.9469995205480757,1
197,Exp1,d11032021,GCq3m,reward_learning,1.0,5.0,10.0,1.0,140.0,748.0,0.13489341727024484,1.0,693.0,0.03939265892462855,1
198,Exp1,d11032021,GCq3m,reward_learning,1.0,6.0,33.0,-1.0,0.0,737.0,0.08675301556785257,-1.0,614.0,-0.43861362153038697,1
199,Exp1,d11032021,GCq3m,reward_learning,1.0,7.0,46.0,1.0,141.0,687.0,-0.13206699217029413,1.0,804.0,0.7110217365259794,1
200,Exp1,d11032021,GCq3m,reward_learning,1.0,8.0,14.0,1.0,152.0,577.0,-0.6134710091942168,1.0,675.0,-0.06952016447018511,1
201,Exp1,d11032021,GCq3m,reward_learning,1.0,9.0,35.0,-1.0,0.0,807.0,0.39310102640125794,-1.0,642.0,-0.26919367402734345,1
202,Exp1,d11032021,GCq3m,reward_learning,1.0,10.0,50.0,1.0,148.0,805.0,0.3843482260917321,1.0,664.0,-0.1360780009892379,1
203,Exp1,d11032021,GCq3m,reward_learning,1.0,11.0,35.0,-1.0,0.0,675.0,-0.18458379402744934,-1.0,655.0,-0.19053441268664473,1
204,Exp1,d11032021,GCq3m,reward_learning,1.0,12.0,5.0,-1.0,0.0,686.0,-0.13644339232505706,-1.0,654.0,-0.1965851250974677,1
205,Exp1,d11032021,GCq3m,reward_learning,1.0,13.0,59.0,-1.0,0.0,1015.0,1.3033922585919482,-1.0,614.0,-0.43861362153038697,1
206,Exp1,d11032021,GCq3m,reward_learning,1.0,14.0,34.0,1.0,151.0,847.0,0.5681570325917753,1.0,774.0,0.52950036420129,1
207,Exp1,d11032021,GCq3m,reward_learning,1.0,15.0,41.0,-1.0,0.0,787.0,0.3055730233059993,-1.0,673.0,-0.08162158929183107,1
208,Exp1,d11032021,GCq3m,reward_learning,1.0,16.0,17.0,1.0,152.0,765.0,0.20929221990121474,1.0,664.0,-0.1360780009892379,1
209,Exp1,d11032021,GCq3m,reward_learning,1.0,17.0,1.0,-1.0,0.0,548.0,-0.7403866136823419,-1.0,545.0,-0.8561127778771727,1
210,Exp1,d11032021,GCq3m,reward_learning,1.0,18.0,50.0,1.0,148.0,728.0,0.04736541417498617,1.0,523.0,-0.9892284509152782,1
211,Exp1,d11032021,GCq3m,reward_learning,1.0,19.0,46.0,1.0,141.0,506.0,-0.9241954201823852,1.0,594.0,-0.5596278697468465,1
212,Exp1,d11032021,GCq3m,reward_learning,1.0,20.0,59.0,-1.0,0.0,707.0,-0.044538989075035444,-1.0,563.0,-0.747199954482359,1
213,Exp1,d11032021,GCq3m,reward_learning,1.0,21.0,17.0,1.0,152.0,597.0,-0.5259430060989582,1.0,502.0,-1.116293411542561,1
214,Exp1,d11032021,GCq3m,reward_learning,1.0,22.0,26.0,1.0,150.0,875.0,0.6906962369251375,1.0,684.0,-0.015063752772778275,1
215,Exp1,d11032021,GCq3m,reward_learning,1.0,23.0,56.0,-1.0,0.0,618.0,-0.4340386028489366,-1.0,604.0,-0.49912074563861675,1
216,Exp1,d11032021,GCq3m,reward_learning,1.0,24.0,1.0,-1.0,0.0,619.0,-0.42966220269417366,-1.0,653.0,-0.20263583750829067,1
217,Exp1,d11032021,GCq3m,reward_learning,1.0,25.0,41.0,-1.0,0.0,1154.0,1.911711880103996,-1.0,704.0,0.10595049544368135,1
218,Exp1,d11032021,GCq3m,reward_learning,1.0,26.0,3.0,1.0,157.0,1184.0,2.043003884746884,1.0,565.0,-0.735098529660713,1
219,Exp1,d11032021,GCq3m,reward_learning,1.0,27.0,27.0,-1.0,0.0,688.0,-0.12769059201553118,-1.0,732.0,0.2753704429467248,1
220,Exp1,d11032021,GCq3m,reward_learning,1.0,28.0,56.0,-1.0,0.0,1055.0,1.4784482647824655,-1.0,1024.0,2.042178466907035,1
221,Exp1,d11032021,GCq3m,reward_learning,1.0,29.0,14.0,1.0,152.0,627.0,-0.3946510014560702,1.0,932.0,1.485512925111321,1
222,Exp1,d11032021,GCq3m,reward_learning,1.0,30.0,26.0,1.0,150.0,548.0,-0.7403866136823419,1.0,642.0,-0.26919367402734345,1
223,Exp1,d11032021,GCq3m,reward_learning,1.0,31.0,10.0,1.0,140.0,594.0,-0.539072206563247,1.0,853.0,1.0075066446563055,1
224,Exp1,d11032021,GCq3m,reward_learning,2.0,32.0,17.0,1.0,152.0,1915.0,5.242152397878589,1.0,663.0,-0.14212871340006086,1
225,Exp1,d11032021,GCq3m,reward_learning,2.0,33.0,1.0,-1.0,0.0,526.0,-0.8366674170871266,-1.0,564.0,-0.741149242071536,1
226,Exp1,d11032021,GCq3m,reward_learning,2.0,34.0,5.0,-1.0,0.0,495.0,-0.9723358218847774,-1.0,635.0,-0.31154866090310435,1
227,Exp1,d11032021,GCq3m,reward_learning,2.0,35.0,3.0,1.0,157.0,468.0,-1.0904986260633767,1.0,853.0,1.0075066446563055,1
228,Exp1,d11032021,GCq3m,reward_learning,2.0,36.0,50.0,1.0,148.0,486.0,-1.0117234232776438,1.0,1023.0,2.036127754496212,1
229,Exp1,d11032021,GCq3m,reward_learning,2.0,37.0,59.0,-1.0,0.0,745.0,0.12176421680595605,-1.0,674.0,-0.07557087688100808,1
230,Exp1,d11032021,GCq3m,reward_learning,2.0,38.0,14.0,1.0,152.0,539.0,-0.7797742150752084,-1.0,822.0,0.8199345599207931,0
231,Exp1,d11032021,GCq3m,reward_learning,2.0,39.0,34.0,1.0,151.0,925.0,0.9095162446632842,-1.0,604.0,-0.49912074563861675,0
232,Exp1,d11032021,GCq3m,reward_learning,2.0,40.0,26.0,1.0,150.0,637.0,-0.3508869999084408,-1.0,533.0,-0.9287213268070484,0
233,Exp1,d11032021,GCq3m,reward_learning,2.0,41.0,41.0,-1.0,0.0,698.0,-0.08392659046790185,-1.0,1469.0,4.734745489723262,1
234,Exp1,d11032021,GCq3m,reward_learning,2.0,42.0,26.0,1.0,150.0,505.0,-0.9285718203371481,1.0,534.0,-0.9226706143962254,1
235,Exp1,d11032021,GCq3m,reward_learning,2.0,43.0,5.0,-1.0,0.0,475.0,-1.059863824980036,-1.0,663.0,-0.14212871340006086,1
236,Exp1,d11032021,GCq3m,reward_learning,2.0,44.0,33.0,-1.0,0.0,638.0,-0.3465105997536779,-1.0,952.0,1.6065271733277806,1
237,Exp1,d11032021,GCq3m,reward_learning,2.0,45.0,27.0,-1.0,0.0,556.0,-0.7053754124442385,-1.0,744.0,0.3479789918766006,1
238,Exp1,d11032021,GCq3m,reward_learning,2.0,46.0,10.0,1.0,140.0,458.0,-1.134262627611006,1.0,644.0,-0.2570922492056975,1
239,Exp1,d11032021,GCq3m,reward_learning,2.0,47.0,3.0,1.0,157.0,598.0,-0.5215666059441952,1.0,573.0,-0.6866928303741292,1
240,Exp1,d11032021,GCq3m,reward_learning,2.0,48.0,46.0,1.0,141.0,546.0,-0.7491394139918678,1.0,614.0,-0.43861362153038697,1
241,Exp1,d11032021,GCq3m,reward_learning,2.0,49.0,17.0,1.0,152.0,805.0,0.3843482260917321,1.0,685.0,-0.009013040361955294,1
242,Exp1,d11032021,GCq3m,reward_learning,2.0,50.0,1.0,-1.0,0.0,589.0,-0.5609542073370617,-1.0,742.0,0.33587756705495464,1
243,Exp1,d11032021,GCq3m,reward_learning,2.0,51.0,14.0,1.0,152.0,874.0,0.6863198367703746,1.0,1053.0,2.2176491268209015,1
244,Exp1,d11032021,GCq3m,reward_learning,2.0,52.0,35.0,-1.0,0.0,796.0,0.3449606246988657,-1.0,705.0,0.11200120785450432,1
245,Exp1,d11032021,GCq3m,reward_learning,2.0,53.0,56.0,-1.0,0.0,598.0,-0.5215666059441952,-1.0,773.0,0.523449651790467,1
246,Exp1,d11032021,GCq3m,reward_learning,2.0,54.0,33.0,-1.0,0.0,426.0,-1.2743074325634198,-1.0,693.0,0.03939265892462855,1
247,Exp1,d11032021,GCq3m,reward_learning,2.0,55.0,41.0,-1.0,0.0,807.0,0.39310102640125794,-1.0,823.0,0.8259852723316161,1
248,Exp1,d11032021,GCq3m,reward_learning,2.0,56.0,35.0,-1.0,0.0,579.0,-0.604718208884691,-1.0,1259.0,3.464095883450436,1
249,Exp1,d11032021,GCq3m,reward_learning,2.0,57.0,10.0,1.0,140.0,891.0,0.7607186394013444,1.0,695.0,0.05149408374627452,1
250,Exp1,d11032021,GCq3m,reward_learning,2.0,58.0,34.0,1.0,151.0,867.0,0.655685035687034,1.0,675.0,-0.06952016447018511,1
251,Exp1,d11032021,GCq3m,reward_learning,2.0,59.0,50.0,1.0,148.0,1464.0,3.2683959280805057,1.0,603.0,-0.5051714580494397,1
252,Exp1,d11032021,GCq3m,reward_learning,2.0,60.0,46.0,1.0,141.0,635.0,-0.3596398002179667,1.0,585.0,-0.6140842814442534,1
253,Exp1,d11032021,GCq3m,reward_learning,2.0,61.0,27.0,-1.0,0.0,594.0,-0.539072206563247,-1.0,565.0,-0.735098529660713,1
254,Exp1,d11032021,GCq3m,reward_learning,2.0,62.0,59.0,-1.0,0.0,718.0,0.003601412627356832,-1.0,902.0,1.3039915527866315,1
255,Exp1,d11032021,GCq3m,reward_learning,2.0,63.0,56.0,-1.0,0.0,615.0,-0.44716780331322536,-1.0,654.0,-0.1965851250974677,1
256,Exp1,d11032021,GCq3m,reward_learning,3.0,64.0,26.0,1.0,150.0,776.0,0.257432621603607,-1.0,526.0,-0.9710763136828092,0
257,Exp1,d11032021,GCq3m,reward_learning,3.0,65.0,46.0,1.0,141.0,567.0,-0.6572350107418462,1.0,514.0,-1.0436848626126851,1
258,Exp1,d11032021,GCq3m,reward_learning,3.0,66.0,3.0,1.0,157.0,467.0,-1.0948750262181397,1.0,475.0,-1.2796626466347814,1
259,Exp1,d11032021,GCq3m,reward_learning,3.0,67.0,3.0,1.0,157.0,677.0,-0.17583099371792346,1.0,453.0,-1.412778319672887,1
260,Exp1,d11032021,GCq3m,reward_learning,3.0,68.0,1.0,-1.0,0.0,667.0,-0.2195949952655528,-1.0,703.0,0.09989978303285836,1
261,Exp1,d11032021,GCq3m,reward_learning,3.0,69.0,34.0,1.0,151.0,526.0,-0.8366674170871266,1.0,1083.0,2.3991704991455913,1
262,Exp1,d11032021,GCq3m,reward_learning,3.0,70.0,26.0,1.0,150.0,948.0,1.0101734482228317,1.0,672.0,-0.08767230170265404,1
263,Exp1,d11032021,GCq3m,reward_learning,3.0,71.0,56.0,-1.0,0.0,773.0,0.24430342113931822,-1.0,626.0,-0.3660050726005112,1
264,Exp1,d11032021,GCq3m,reward_learning,3.0,72.0,50.0,1.0,148.0,687.0,-0.13206699217029413,1.0,474.0,-1.2857133590456042,1
265,Exp1,d11032021,GCq3m,reward_learning,3.0,73.0,17.0,1.0,152.0,639.0,-0.34213419959891495,1.0,632.0,-0.3297007981355733,1
266,Exp1,d11032021,GCq3m,reward_learning,3.0,74.0,33.0,-1.0,0.0,706.0,-0.04891538922979838,-1.0,634.0,-0.31759937331392735,1
267,Exp1,d11032021,GCq3m,reward_learning,3.0,75.0,5.0,-1.0,0.0,658.0,-0.2589825966584192,-1.0,583.0,-0.6261857062658993,1
268,Exp1,d11032021,GCq3m,reward_learning,3.0,76.0,10.0,1.0,140.0,648.0,-0.30274659820604854,1.0,604.0,-0.49912074563861675,1
269,Exp1,d11032021,GCq3m,reward_learning,3.0,77.0,14.0,1.0,152.0,655.0,-0.272111797122708,1.0,755.0,0.41453682839565337,1
270,Exp1,d11032021,GCq3m,reward_learning,3.0,78.0,50.0,1.0,148.0,838.0,0.528769431198909,1.0,485.0,-1.2191555225265516,1
271,Exp1,d11032021,GCq3m,reward_learning,3.0,79.0,41.0,-1.0,0.0,696.0,-0.09267939077742772,-1.0,564.0,-0.741149242071536,1
272,Exp1,d11032021,GCq3m,reward_learning,3.0,80.0,1.0,-1.0,0.0,786.0,0.30119662315123635,-1.0,695.0,0.05149408374627452,1
273,Exp1,d11032021,GCq3m,reward_learning,3.0,81.0,33.0,-1.0,0.0,718.0,0.003601412627356832,-1.0,545.0,-0.8561127778771727,1
274,Exp1,d11032021,GCq3m,reward_learning,3.0,82.0,59.0,-1.0,0.0,658.0,-0.2589825966584192,-1.0,493.0,-1.1707498232399676,1
275,Exp1,d11032021,GCq3m,reward_learning,3.0,83.0,10.0,1.0,140.0,514.0,-0.8891842189442817,1.0,794.0,0.6505146124177497,1
276,Exp1,d11032021,GCq3m,reward_learning,3.0,84.0,17.0,1.0,152.0,696.0,-0.09267939077742772,1.0,735.0,0.29352258017919375,1
277,Exp1,d11032021,GCq3m,reward_learning,3.0,85.0,27.0,-1.0,0.0,570.0,-0.6441058102775574,-1.0,513.0,-1.049735575023508,1
278,Exp1,d11032021,GCq3m,reward_learning,3.0,86.0,27.0,-1.0,0.0,505.0,-0.9285718203371481,-1.0,844.0,0.9530502329588987,1
279,Exp1,d11032021,GCq3m,reward_learning,3.0,87.0,41.0,-1.0,0.0,608.0,-0.4778026043965659,-1.0,653.0,-0.20263583750829067,1
280,Exp1,d11032021,GCq3m,reward_learning,3.0,88.0,56.0,-1.0,0.0,698.0,-0.08392659046790185,-1.0,812.0,0.7594274358125633,1
281,Exp1,d11032021,GCq3m,reward_learning,3.0,89.0,46.0,1.0,141.0,756.0,0.16990461850834832,1.0,674.0,-0.07557087688100808,1
282,Exp1,d11032021,GCq3m,reward_learning,3.0,90.0,59.0,-1.0,0.0,707.0,-0.044538989075035444,-1.0,614.0,-0.43861362153038697,1
283,Exp1,d11032021,GCq3m,reward_learning,3.0,91.0,35.0,-1.0,0.0,389.0,-1.4362342382896485,-1.0,653.0,-0.20263583750829067,1
284,Exp1,d11032021,GCq3m,reward_learning,3.0,92.0,5.0,-1.0,0.0,677.0,-0.17583099371792346,-1.0,534.0,-0.9226706143962254,1
285,Exp1,d11032021,GCq3m,reward_learning,3.0,93.0,35.0,-1.0,0.0,539.0,-0.7797742150752084,-1.0,645.0,-0.2510415367948745,1
286,Exp1,d11032021,GCq3m,reward_learning,3.0,94.0,34.0,1.0,151.0,440.0,-1.2130378303967388,1.0,612.0,-0.4507150463520329,1
287,Exp1,d11032021,GCq3m,reward_learning,3.0,95.0,14.0,1.0,152.0,705.0,-0.05329178938456131,1.0,487.0,-1.2070540977049056,1
288,Exp1,d11032021,qBGkp,reward_learning,1.0,0.0,17.0,1.0,142.0,1373.0,3.7602934535225354,1.0,1786.0,4.356211004415491,1
289,Exp1,d11032021,qBGkp,reward_learning,1.0,1.0,5.0,-1.0,0.0,1060.0,1.9192073103694967,-1.0,1250.0,2.1943871098972147,1
290,Exp1,d11032021,qBGkp,reward_learning,1.0,2.0,8.0,-1.0,0.0,920.0,1.0957183006524824,,,,0
291,Exp1,d11032021,qBGkp,reward_learning,1.0,3.0,24.0,-1.0,0.0,1123.0,2.289777364742153,-1.0,989.0,1.1417079373799193,1
292,Exp1,d11032021,qBGkp,reward_learning,1.0,4.0,17.0,1.0,142.0,847.0,0.6663276027286108,1.0,731.0,0.10112852546627113,1
293,Exp1,d11032021,qBGkp,reward_learning,1.0,5.0,33.0,1.0,150.0,802.0,0.40163470674814195,1.0,970.0,1.065076120223488,1
294,Exp1,d11032021,qBGkp,reward_learning,1.0,6.0,53.0,-1.0,0.0,668.0,-0.38656191683814306,-1.0,821.0,0.4641213435756833,1
295,Exp1,d11032021,qBGkp,reward_learning,1.0,7.0,34.0,1.0,152.0,648.0,-0.5042032039405736,1.0,1295.0,2.375883518951921,1
296,Exp1,d11032021,qBGkp,reward_learning,1.0,8.0,10.0,1.0,148.0,860.0,0.7427944393451906,1.0,1372.0,2.6864440411121957,1
297,Exp1,d11032021,qBGkp,reward_learning,1.0,9.0,16.0,-1.0,0.0,737.0,0.01930052366524252,-1.0,899.0,0.7787151192705072,1
298,Exp1,d11032021,qBGkp,reward_learning,1.0,10.0,49.0,1.0,157.0,639.0,-0.5571417831366674,1.0,1144.0,1.766862235235018,1
299,Exp1,d11032021,qBGkp,reward_learning,1.0,11.0,16.0,-1.0,0.0,760.0,0.1545880038330377,-1.0,818.0,0.4520215829720362,1
300,Exp1,d11032021,qBGkp,reward_learning,1.0,12.0,24.0,-1.0,0.0,646.0,-0.5159673326508167,-1.0,863.0,0.6335179920267423,1
301,Exp1,d11032021,qBGkp,reward_learning,1.0,13.0,10.0,1.0,148.0,634.0,-0.586552104912275,1.0,1029.0,1.3030380787618803,1
302,Exp1,d11032021,qBGkp,reward_learning,1.0,14.0,32.0,1.0,157.0,812.0,0.46045535029935725,1.0,1000.0,1.1860737262599585,1
303,Exp1,d11032021,qBGkp,reward_learning,1.0,15.0,1.0,-1.0,0.0,689.0,-0.2630385653805909,-1.0,831.0,0.5044538789211735,1
304,Exp1,d11032021,qBGkp,reward_learning,1.0,16.0,5.0,-1.0,0.0,695.0,-0.22774617924986174,-1.0,1091.0,1.5530997979039198,1
305,Exp1,d11032021,qBGkp,reward_learning,1.0,17.0,34.0,1.0,152.0,656.0,-0.4571466890996014,1.0,775.0,0.27859168098642817,1
306,Exp1,d11032021,qBGkp,reward_learning,1.0,18.0,14.0,-1.0,0.0,591.0,-0.8394808721825008,-1.0,683.0,-0.09246764419208203,1
307,Exp1,d11032021,qBGkp,reward_learning,1.0,19.0,49.0,1.0,157.0,500.0,-1.37474872849856,1.0,638.0,-0.27396405324678813,1
308,Exp1,d11032021,qBGkp,reward_learning,1.0,20.0,36.0,-1.0,0.0,765.0,0.18399832560864535,-1.0,695.0,-0.04406860177749375,1
309,Exp1,d11032021,qBGkp,reward_learning,1.0,21.0,7.0,1.0,149.0,814.0,0.4722194790096003,1.0,790.0,0.3390904840046636,1
310,Exp1,d11032021,qBGkp,reward_learning,1.0,22.0,1.0,-1.0,0.0,644.0,-0.5277314613610598,-1.0,577.0,-0.5199925188542786,1
311,Exp1,d11032021,qBGkp,reward_learning,1.0,23.0,14.0,-1.0,0.0,1059.0,1.913325246014375,-1.0,524.0,-0.7337549561853769,1
312,Exp1,d11032021,qBGkp,reward_learning,1.0,24.0,41.0,1.0,152.0,602.0,-0.774778164276164,1.0,682.0,-0.09650089772663106,1
313,Exp1,d11032021,qBGkp,reward_learning,1.0,25.0,53.0,-1.0,0.0,551.0,-1.074763446387362,-1.0,647.0,-0.2376647714358469,1
314,Exp1,d11032021,qBGkp,reward_learning,1.0,26.0,33.0,1.0,150.0,614.0,-0.7041933920147057,1.0,675.0,-0.12473367246847424,1
315,Exp1,d11032021,qBGkp,reward_learning,1.0,27.0,32.0,1.0,157.0,941.0,1.2192416521100347,1.0,776.0,0.2826249345209772,1
316,Exp1,d11032021,qBGkp,reward_learning,1.0,28.0,7.0,1.0,149.0,483.0,-1.474743822535626,-1.0,533.0,-0.6974556743744357,0
317,Exp1,d11032021,qBGkp,reward_learning,1.0,29.0,36.0,-1.0,0.0,682.0,-0.3042130158664416,-1.0,632.0,-0.29816357445408226,1
318,Exp1,d11032021,qBGkp,reward_learning,1.0,30.0,8.0,-1.0,0.0,655.0,-0.46302875345472294,-1.0,649.0,-0.22959826436674885,1
319,Exp1,d11032021,qBGkp,reward_learning,1.0,31.0,41.0,1.0,152.0,627.0,-0.6277265553981257,1.0,639.0,-0.2699307997122391,1
320,Exp1,d11032021,qBGkp,reward_learning,2.0,32.0,32.0,1.0,157.0,673.0,-0.3571515950625354,1.0,791.0,0.34312373753921255,1
321,Exp1,d11032021,qBGkp,reward_learning,2.0,33.0,1.0,-1.0,0.0,821.0,0.513393929495451,-1.0,829.0,0.4963873718520755,1
322,Exp1,d11032021,qBGkp,reward_learning,2.0,34.0,34.0,1.0,152.0,649.0,-0.4983211395854521,1.0,762.0,0.22615938503729088,1
323,Exp1,d11032021,qBGkp,reward_learning,2.0,35.0,10.0,1.0,148.0,615.0,-0.6983113276595841,1.0,735.0,0.11726153960446722,1
324,Exp1,d11032021,qBGkp,reward_learning,2.0,36.0,33.0,1.0,150.0,660.0,-0.4336184316791153,1.0,611.0,-0.3828618986796118,1
325,Exp1,d11032021,qBGkp,reward_learning,2.0,37.0,16.0,-1.0,0.0,653.0,-0.47479288216496596,-1.0,699.0,-0.02793558763929765,1
326,Exp1,d11032021,qBGkp,reward_learning,2.0,38.0,41.0,1.0,152.0,895.0,0.9486666917744442,1.0,517.0,-0.76198773092722,1
327,Exp1,d11032021,qBGkp,reward_learning,2.0,39.0,41.0,1.0,152.0,562.0,-1.0100607384810252,1.0,605.0,-0.4070614198869059,1
328,Exp1,d11032021,qBGkp,reward_learning,2.0,40.0,16.0,-1.0,0.0,563.0,-1.0041786741259036,-1.0,718.0,0.04869622951713381,1
329,Exp1,d11032021,qBGkp,reward_learning,2.0,41.0,14.0,-1.0,0.0,673.0,-0.3571515950625354,-1.0,844.0,0.5568861748703109,1
330,Exp1,d11032021,qBGkp,reward_learning,2.0,42.0,36.0,-1.0,0.0,658.0,-0.4453825603893583,-1.0,641.0,-0.26186429264314104,1
331,Exp1,d11032021,qBGkp,reward_learning,2.0,43.0,34.0,1.0,152.0,583.0,-0.8865373870234731,1.0,627.0,-0.3183298421268274,1
332,Exp1,d11032021,qBGkp,reward_learning,2.0,44.0,53.0,-1.0,0.0,783.0,0.2898754840008329,-1.0,648.0,-0.23363151790129788,1
333,Exp1,d11032021,qBGkp,reward_learning,2.0,45.0,14.0,-1.0,0.0,688.0,-0.26892062973571246,-1.0,639.0,-0.2699307997122391,1
334,Exp1,d11032021,qBGkp,reward_learning,2.0,46.0,5.0,-1.0,0.0,601.0,-0.7806602286312855,-1.0,538.0,-0.6772894067016906,1
335,Exp1,d11032021,qBGkp,reward_learning,2.0,47.0,8.0,-1.0,0.0,710.0,-0.13951521392303878,-1.0,815.0,0.43992182236838917,1
336,Exp1,d11032021,qBGkp,reward_learning,2.0,48.0,49.0,1.0,157.0,654.0,-0.46891081780984445,1.0,856.0,0.6052852172848991,1
337,Exp1,d11032021,qBGkp,reward_learning,2.0,49.0,5.0,-1.0,0.0,813.0,0.46633741465447875,-1.0,773.0,0.27052517391733016,1
338,Exp1,d11032021,qBGkp,reward_learning,2.0,50.0,24.0,-1.0,0.0,659.0,-0.4395004960342368,-1.0,798.0,0.37135651228105576,1
339,Exp1,d11032021,qBGkp,reward_learning,2.0,51.0,8.0,-1.0,0.0,610.0,-0.7277216494351918,-1.0,534.0,-0.6934224208398866,1
340,Exp1,d11032021,qBGkp,reward_learning,2.0,52.0,24.0,-1.0,0.0,681.0,-0.3100950802215631,-1.0,538.0,-0.6772894067016906,1
341,Exp1,d11032021,qBGkp,reward_learning,2.0,53.0,32.0,1.0,157.0,494.0,-1.4100411146292893,1.0,659.0,-0.18926572902125863,1
342,Exp1,d11032021,qBGkp,reward_learning,2.0,54.0,7.0,1.0,149.0,870.0,0.8016150828964059,1.0,580.0,-0.5078927582506315,1
343,Exp1,d11032021,qBGkp,reward_learning,2.0,55.0,49.0,1.0,157.0,777.0,0.2545830978701037,1.0,628.0,-0.3142965885922784,1
344,Exp1,d11032021,qBGkp,reward_learning,2.0,56.0,33.0,1.0,150.0,730.0,-0.021873926820608187,1.0,695.0,-0.04406860177749375,1
345,Exp1,d11032021,qBGkp,reward_learning,2.0,57.0,53.0,-1.0,0.0,580.0,-0.9041835800888377,-1.0,949.0,0.9803777959979584,1
346,Exp1,d11032021,qBGkp,reward_learning,2.0,58.0,36.0,-1.0,0.0,717.0,-0.09834076343718808,-1.0,555.0,-0.6087240966143571,1
347,Exp1,d11032021,qBGkp,reward_learning,2.0,59.0,10.0,1.0,148.0,583.0,-0.8865373870234731,1.0,693.0,-0.052135108846591796,1
348,Exp1,d11032021,qBGkp,reward_learning,2.0,60.0,17.0,1.0,142.0,982.0,1.4604062906700173,1.0,703.0,-0.011802573501101553,1
349,Exp1,d11032021,qBGkp,reward_learning,2.0,61.0,7.0,1.0,149.0,769.0,0.20752658302913146,1.0,658.0,-0.19329898255580763,1
350,Exp1,d11032021,qBGkp,reward_learning,2.0,62.0,17.0,1.0,142.0,491.0,-1.427687307694654,1.0,553.0,-0.6167906036834552,1
351,Exp1,d11032021,qBGkp,reward_learning,2.0,63.0,1.0,-1.0,0.0,812.0,0.46045535029935725,-1.0,712.0,0.024496708309839663,1
352,Exp1,d11032021,qBGkp,reward_learning,3.0,64.0,53.0,-1.0,0.0,1192.0,2.6956398052455386,-1.0,533.0,-0.6974556743744357,1
353,Exp1,d11032021,qBGkp,reward_learning,3.0,65.0,34.0,1.0,152.0,877.0,0.8427895333822567,1.0,730.0,0.0970952719317221,1
354,Exp1,d11032021,qBGkp,reward_learning,3.0,66.0,8.0,-1.0,0.0,715.0,-0.11010489214743113,-1.0,682.0,-0.09650089772663106,1
355,Exp1,d11032021,qBGkp,reward_learning,3.0,67.0,33.0,1.0,150.0,735.0,0.00753639495499946,1.0,364.0,-1.3790755217132207,1
356,Exp1,d11032021,qBGkp,reward_learning,3.0,68.0,10.0,1.0,148.0,790.0,0.3310499344866836,1.0,389.0,-1.278244183349495,1
357,Exp1,d11032021,qBGkp,reward_learning,3.0,69.0,1.0,-1.0,0.0,1114.0,2.2368387855460594,-1.0,309.0,-1.600904466113417,1
358,Exp1,d11032021,qBGkp,reward_learning,3.0,70.0,16.0,-1.0,0.0,872.0,0.813379211606649,-1.0,392.0,-1.266144422745848,1
359,Exp1,d11032021,qBGkp,reward_learning,3.0,71.0,24.0,-1.0,0.0,612.0,-0.7159575207249487,-1.0,490.0,-0.8708855763600437,1
360,Exp1,d11032021,qBGkp,reward_learning,3.0,72.0,32.0,1.0,157.0,1412.0,3.989693963372275,1.0,377.0,-1.3266432257640834,1
361,Exp1,d11032021,qBGkp,reward_learning,3.0,73.0,49.0,1.0,157.0,863.0,0.7604406324105553,1.0,980.0,1.1054086555689782,1
362,Exp1,d11032021,qBGkp,reward_learning,3.0,74.0,49.0,1.0,157.0,709.0,-0.14539727827816032,1.0,1053.0,1.399836163591057,1
363,Exp1,d11032021,qBGkp,reward_learning,3.0,75.0,5.0,-1.0,0.0,722.0,-0.06893044166158042,-1.0,1003.0,1.1981734868636058,1
364,Exp1,d11032021,qBGkp,reward_learning,3.0,76.0,14.0,-1.0,0.0,682.0,-0.3042130158664416,-1.0,720.0,0.056762736586231856,1
365,Exp1,d11032021,qBGkp,reward_learning,3.0,77.0,41.0,1.0,152.0,548.0,-1.0924096394527265,1.0,834.0,0.5165536395248206,1
366,Exp1,d11032021,qBGkp,reward_learning,3.0,78.0,7.0,1.0,149.0,458.0,-1.6217954314136642,1.0,926.0,0.8876129647033308,1
367,Exp1,d11032021,qBGkp,reward_learning,3.0,79.0,17.0,1.0,142.0,612.0,-0.7159575207249487,1.0,725.0,0.07692900425897697,1
368,Exp1,d11032021,qBGkp,reward_learning,3.0,80.0,8.0,-1.0,0.0,779.0,0.26634722658034676,-1.0,1055.0,1.407902670660155,1
369,Exp1,d11032021,qBGkp,reward_learning,3.0,81.0,53.0,-1.0,0.0,646.0,-0.5159673326508167,-1.0,592.0,-0.45949371583604326,1
370,Exp1,d11032021,qBGkp,reward_learning,3.0,82.0,10.0,1.0,148.0,759.0,0.14870593947791616,1.0,474.0,-0.9354176329128281,1
371,Exp1,d11032021,qBGkp,reward_learning,3.0,83.0,1.0,-1.0,0.0,711.0,-0.13363314956791725,-1.0,525.0,-0.7297217026508278,1
372,Exp1,d11032021,qBGkp,reward_learning,3.0,84.0,17.0,1.0,142.0,704.0,-0.17480760005376797,1.0,448.0,-1.0402822248111028,1
373,Exp1,d11032021,qBGkp,reward_learning,3.0,85.0,5.0,-1.0,0.0,596.0,-0.8100705504068931,-1.0,328.0,-1.5242726489569856,1
374,Exp1,d11032021,qBGkp,reward_learning,3.0,86.0,36.0,-1.0,0.0,609.0,-0.7336037137903133,-1.0,381.0,-1.3105102116258873,1
375,Exp1,d11032021,qBGkp,reward_learning,3.0,87.0,14.0,-1.0,0.0,675.0,-0.34538746635229234,-1.0,342.0,-1.4678070994732992,1
376,Exp1,d11032021,qBGkp,reward_learning,3.0,88.0,36.0,-1.0,0.0,772.0,0.22517277609449607,-1.0,428.0,-1.1209472955020832,1
377,Exp1,d11032021,qBGkp,reward_learning,3.0,89.0,41.0,1.0,152.0,685.0,-0.28656682280107704,1.0,541.0,-0.6651896460980434,1
378,Exp1,d11032021,qBGkp,reward_learning,3.0,90.0,24.0,-1.0,0.0,733.0,-0.0042277337552435994,-1.0,537.0,-0.6813226602362396,1
379,Exp1,d11032021,qBGkp,reward_learning,3.0,91.0,34.0,1.0,152.0,648.0,-0.5042032039405736,1.0,504.0,-0.8144200268763574,1
380,Exp1,d11032021,qBGkp,reward_learning,3.0,92.0,16.0,-1.0,0.0,831.0,0.5722145730466663,-1.0,294.0,-1.6614032691316525,1
381,Exp1,d11032021,qBGkp,reward_learning,3.0,93.0,33.0,1.0,150.0,810.0,0.4486912215891142,1.0,409.0,-1.1975791126585147,1
382,Exp1,d11032021,qBGkp,reward_learning,3.0,94.0,7.0,1.0,149.0,759.0,0.14870593947791616,1.0,635.0,-0.2860638138504352,1
383,Exp1,d11032021,qBGkp,reward_learning,3.0,95.0,32.0,1.0,157.0,701.0,-0.19245379311913255,1.0,356.0,-1.411341549989613,1
384,Exp1,d11032021,BcmPt,reward_learning,1.0,0.0,23.0,1.0,156.0,576.0,0.010005469817317574,1.0,943.0,1.5931286600984063,1
385,Exp1,d11032021,BcmPt,reward_learning,1.0,1.0,15.0,-1.0,0.0,526.0,-0.3018533296834973,-1.0,738.0,0.6276556037845358,1
386,Exp1,d11032021,BcmPt,reward_learning,1.0,2.0,42.0,1.0,155.0,443.0,-0.81953893685485,1.0,899.0,1.3859051748407951,1
387,Exp1,d11032021,BcmPt,reward_learning,1.0,3.0,13.0,1.0,141.0,652.0,0.48403084505855615,1.0,754.0,0.7030095984236671,1
388,Exp1,d11032021,BcmPt,reward_learning,1.0,4.0,2.0,-1.0,0.0,544.0,-0.18958416186320395,-1.0,682.0,0.36391662254757595,1
389,Exp1,d11032021,BcmPt,reward_learning,1.0,5.0,13.0,1.0,141.0,471.0,-0.6448980091343937,1.0,746.0,0.6653326011041014,1
390,Exp1,d11032021,BcmPt,reward_learning,1.0,6.0,56.0,-1.0,0.0,581.0,0.04119134976739906,-1.0,729.0,0.5852689818000243,1
391,Exp1,d11032021,BcmPt,reward_learning,1.0,7.0,23.0,1.0,156.0,623.0,0.30315274134808357,1.0,729.0,0.5852689818000243,1
392,Exp1,d11032021,BcmPt,reward_learning,1.0,8.0,49.0,-1.0,0.0,675.0,0.627485892828931,-1.0,687.0,0.3874647458723045,1
393,Exp1,d11032021,BcmPt,reward_learning,1.0,9.0,56.0,-1.0,0.0,536.0,-0.23948156978333432,-1.0,1418.0,3.8302003759476184,1
394,Exp1,d11032021,BcmPt,reward_learning,1.0,10.0,15.0,-1.0,0.0,434.0,-0.8756735207649966,-1.0,758.0,0.7218480970834499,1
395,Exp1,d11032021,BcmPt,reward_learning,1.0,11.0,49.0,-1.0,0.0,605.0,0.1908835735277902,-1.0,481.0,-0.5827179351065117,1
396,Exp1,d11032021,BcmPt,reward_learning,1.0,12.0,24.0,1.0,146.0,624.0,0.30938991733809984,1.0,601.0,-0.017562975313026533,1
397,Exp1,d11032021,BcmPt,reward_learning,1.0,13.0,1.0,-1.0,0.0,671.0,0.6025371888688659,-1.0,677.0,0.3403684992228474,1
398,Exp1,d11032021,BcmPt,reward_learning,1.0,14.0,1.0,-1.0,0.0,580.0,0.03495417377738276,-1.0,556.0,-0.22949608523558349,1
399,Exp1,d11032021,BcmPt,reward_learning,1.0,15.0,46.0,-1.0,0.0,583.0,0.053665701747431654,-1.0,582.0,-0.10704584394699503,1
400,Exp1,d11032021,BcmPt,reward_learning,1.0,16.0,29.0,1.0,141.0,630.0,0.34681297327819766,1.0,588.0,-0.07878809595732077,1
401,Exp1,d11032021,BcmPt,reward_learning,1.0,17.0,59.0,1.0,150.0,588.0,0.08485158169751314,1.0,564.0,-0.1918190879160178,1
402,Exp1,d11032021,BcmPt,reward_learning,1.0,18.0,59.0,1.0,150.0,455.0,-0.7446928249746544,1.0,504.0,-0.4743965678127604,1
403,Exp1,d11032021,BcmPt,reward_learning,1.0,19.0,16.0,-1.0,0.0,809.0,1.4632674754911148,-1.0,709.0,0.49107648850111013,1
404,Exp1,d11032021,BcmPt,reward_learning,1.0,20.0,29.0,1.0,141.0,1051.0,2.9726640650750586,1.0,637.0,0.15198351262501902,1
405,Exp1,d11032021,BcmPt,reward_learning,1.0,21.0,42.0,1.0,155.0,1406.0,5.1868615415308446,1.0,633.0,0.13314501396523618,1
406,Exp1,d11032021,BcmPt,reward_learning,1.0,22.0,46.0,-1.0,0.0,453.0,-0.757167176954687,-1.0,596.0,-0.041111098637755084,1
407,Exp1,d11032021,BcmPt,reward_learning,1.0,23.0,16.0,-1.0,0.0,586.0,0.07237722971748055,-1.0,421.0,-0.8652954150032544,1
408,Exp1,d11032021,BcmPt,reward_learning,1.0,24.0,57.0,1.0,148.0,462.0,-0.7010325930445404,1.0,608.0,0.015404397341593438,1
409,Exp1,d11032021,BcmPt,reward_learning,1.0,25.0,27.0,1.0,145.0,486.0,-0.5513403692841492,1.0,711.0,0.5004957378310015,1
410,Exp1,d11032021,BcmPt,reward_learning,1.0,26.0,27.0,1.0,145.0,501.0,-0.45778272943390474,1.0,606.0,0.005985148011702018,1
411,Exp1,d11032021,BcmPt,reward_learning,1.0,27.0,19.0,-1.0,0.0,651.0,0.4777936690685399,-1.0,768.0,0.768944343732907,1
412,Exp1,d11032021,BcmPt,reward_learning,1.0,28.0,2.0,-1.0,0.0,432.0,-0.8881478727450293,-1.0,663.0,0.27443375391360747,1
413,Exp1,d11032021,BcmPt,reward_learning,1.0,29.0,19.0,-1.0,0.0,453.0,-0.757167176954687,-1.0,491.0,-0.5356216884570546,1
414,Exp1,d11032021,BcmPt,reward_learning,1.0,30.0,24.0,1.0,146.0,594.0,0.12227463763761093,1.0,523.0,-0.3849136991787919,1
415,Exp1,d11032021,BcmPt,reward_learning,1.0,31.0,57.0,1.0,148.0,690.0,0.7210435326791754,1.0,381.0,-1.0536804016010828,1
416,Exp1,d11032021,BcmPt,reward_learning,2.0,32.0,49.0,-1.0,0.0,829.0,1.5880109952914407,-1.0,515.0,-0.42259069649835757,1
417,Exp1,d11032021,BcmPt,reward_learning,2.0,33.0,56.0,-1.0,0.0,587.0,0.07861440570749685,-1.0,219.0,-1.8166395973222877,1
418,Exp1,d11032021,BcmPt,reward_learning,2.0,34.0,23.0,1.0,156.0,573.0,-0.008706058152731318,1.0,484.0,-0.5685890611116746,1
419,Exp1,d11032021,BcmPt,reward_learning,2.0,35.0,27.0,1.0,145.0,529.0,-0.2831418017134484,1.0,549.0,-0.2624634578902034,1
420,Exp1,d11032021,BcmPt,reward_learning,2.0,36.0,19.0,-1.0,0.0,507.0,-0.42035967349380693,-1.0,411.0,-0.9123916616527115,1
421,Exp1,d11032021,BcmPt,reward_learning,2.0,37.0,2.0,-1.0,0.0,430.0,-0.9006222247250618,-1.0,543.0,-0.2907212058798777,1
422,Exp1,d11032021,BcmPt,reward_learning,2.0,38.0,19.0,-1.0,0.0,408.0,-1.0378400965054204,-1.0,341.0,-1.2420653881989112,1
423,Exp1,d11032021,BcmPt,reward_learning,2.0,39.0,13.0,1.0,141.0,497.0,-0.4827314333939699,1.0,406.0,-0.93593978497744,1
424,Exp1,d11032021,BcmPt,reward_learning,2.0,40.0,59.0,1.0,150.0,417.0,-0.9817055125952737,1.0,843.0,1.1221661936038352,1
425,Exp1,d11032021,BcmPt,reward_learning,2.0,41.0,1.0,-1.0,0.0,577.0,0.01624264580733387,-1.0,832.0,1.0703603222894325,1
426,Exp1,d11032021,BcmPt,reward_learning,2.0,42.0,29.0,1.0,141.0,490.0,-0.526391665324084,1.0,580.0,-0.11646509327688644,1
427,Exp1,d11032021,BcmPt,reward_learning,2.0,43.0,57.0,1.0,148.0,813.0,1.4882161794511801,1.0,377.0,-1.0725189002608655,1
428,Exp1,d11032021,BcmPt,reward_learning,2.0,44.0,1.0,-1.0,0.0,524.0,-0.31432768166352987,-1.0,513.0,-0.43200994582824903,1
429,Exp1,d11032021,BcmPt,reward_learning,2.0,45.0,15.0,-1.0,0.0,1078.0,3.141067816805499,-1.0,804.0,0.9384908316709526,1
430,Exp1,d11032021,BcmPt,reward_learning,2.0,46.0,24.0,1.0,146.0,364.0,-1.3122758400661374,1.0,434.0,-0.80407029435896,1
431,Exp1,d11032021,BcmPt,reward_learning,2.0,47.0,46.0,-1.0,0.0,865.0,1.8125493309320275,-1.0,612.0,0.034242896001376276,1
432,Exp1,d11032021,BcmPt,reward_learning,2.0,48.0,24.0,1.0,146.0,542.0,-0.20205851384323653,1.0,745.0,0.6606229764391557,1
433,Exp1,d11032021,BcmPt,reward_learning,2.0,49.0,56.0,-1.0,0.0,773.0,1.2387291398505282,-1.0,367.0,-1.1196151469103226,1
434,Exp1,d11032021,BcmPt,reward_learning,2.0,50.0,27.0,1.0,145.0,866.0,1.8187865069220437,1.0,376.0,-1.0772285249258113,1
435,Exp1,d11032021,BcmPt,reward_learning,2.0,51.0,16.0,-1.0,0.0,567.0,-0.046129114092829104,-1.0,513.0,-0.43200994582824903,1
436,Exp1,d11032021,BcmPt,reward_learning,2.0,52.0,42.0,1.0,155.0,594.0,0.12227463763761093,1.0,707.0,0.4816572391712187,1
437,Exp1,d11032021,BcmPt,reward_learning,2.0,53.0,29.0,1.0,141.0,780.0,1.2823893717806423,1.0,478.0,-0.5968468091013489,1
438,Exp1,d11032021,BcmPt,reward_learning,2.0,54.0,46.0,-1.0,0.0,661.0,0.5401654289687029,-1.0,466.0,-0.6533623050806974,1
439,Exp1,d11032021,BcmPt,reward_learning,2.0,55.0,23.0,1.0,156.0,629.0,0.3405757972881813,1.0,477.0,-0.6015564337662945,1
440,Exp1,d11032021,BcmPt,reward_learning,2.0,56.0,57.0,1.0,148.0,613.0,0.24078098144792057,1.0,682.0,0.36391662254757595,1
441,Exp1,d11032021,BcmPt,reward_learning,2.0,57.0,16.0,-1.0,0.0,827.0,1.5755366433114082,-1.0,540.0,-0.30485007987471485,1
442,Exp1,d11032021,BcmPt,reward_learning,2.0,58.0,59.0,1.0,150.0,574.0,-0.0024688821627150206,1.0,1670.0,5.017025791513938,1
443,Exp1,d11032021,BcmPt,reward_learning,2.0,59.0,13.0,1.0,141.0,575.0,0.0037682938273012768,1.0,329.0,-1.2985808841782596,1
444,Exp1,d11032021,BcmPt,reward_learning,2.0,60.0,15.0,-1.0,0.0,639.0,0.4029475571883443,-1.0,410.0,-0.9171012863176571,1
445,Exp1,d11032021,BcmPt,reward_learning,2.0,61.0,2.0,-1.0,0.0,542.0,-0.20205851384323653,-1.0,586.0,-0.08820734528721218,1
446,Exp1,d11032021,BcmPt,reward_learning,2.0,62.0,42.0,1.0,155.0,514.0,-0.37669944156369284,1.0,560.0,-0.21065758657580064,1
447,Exp1,d11032021,BcmPt,reward_learning,2.0,63.0,49.0,-1.0,0.0,629.0,0.3405757972881813,-1.0,809.0,0.9620389549956812,1
448,Exp1,d11032021,BcmPt,reward_learning,3.0,64.0,19.0,-1.0,0.0,344.0,-1.4370193598664633,-1.0,702.0,0.45810911584649017,1
449,Exp1,d11032021,BcmPt,reward_learning,3.0,65.0,1.0,-1.0,0.0,478.0,-0.6012377772042795,-1.0,624.0,0.0907583919807248,1
450,Exp1,d11032021,BcmPt,reward_learning,3.0,66.0,59.0,1.0,150.0,413.0,-1.006654216555339,1.0,411.0,-0.9123916616527115,1
451,Exp1,d11032021,BcmPt,reward_learning,3.0,67.0,56.0,-1.0,0.0,527.0,-0.295616153693481,-1.0,618.0,0.06250064399105054,1
452,Exp1,d11032021,BcmPt,reward_learning,3.0,68.0,29.0,1.0,141.0,605.0,0.1908835735277902,1.0,561.0,-0.20594796191085493,1
453,Exp1,d11032021,BcmPt,reward_learning,3.0,69.0,27.0,1.0,145.0,687.0,0.7023320047091266,1.0,680.0,0.35449737321768454,1
454,Exp1,d11032021,BcmPt,reward_learning,3.0,70.0,29.0,1.0,141.0,602.0,0.1721720455577413,1.0,608.0,0.015404397341593438,1
455,Exp1,d11032021,BcmPt,reward_learning,3.0,71.0,1.0,-1.0,0.0,427.0,-0.9193337526951108,-1.0,785.0,0.8490079630369841,1
456,Exp1,d11032021,BcmPt,reward_learning,3.0,72.0,46.0,-1.0,0.0,532.0,-0.2644302737433995,-1.0,1175.0,2.685761582365811,1
457,Exp1,d11032021,BcmPt,reward_learning,3.0,73.0,42.0,1.0,155.0,471.0,-0.6448980091343937,1.0,393.0,-0.9971649056217342,1
458,Exp1,d11032021,BcmPt,reward_learning,3.0,74.0,2.0,-1.0,0.0,483.0,-0.570051897254198,-1.0,443.0,-0.7616836723744487,1
459,Exp1,d11032021,BcmPt,reward_learning,3.0,75.0,23.0,1.0,156.0,415.0,-0.9941798645753063,1.0,486.0,-0.5591698117817832,1
460,Exp1,d11032021,BcmPt,reward_learning,3.0,76.0,24.0,1.0,146.0,490.0,-0.526391665324084,1.0,704.0,0.4675283651763816,1
461,Exp1,d11032021,BcmPt,reward_learning,3.0,77.0,49.0,-1.0,0.0,322.0,-1.574237231646822,-1.0,711.0,0.5004957378310015,1
462,Exp1,d11032021,BcmPt,reward_learning,3.0,78.0,16.0,-1.0,0.0,529.0,-0.2831418017134484,-1.0,426.0,-0.8417472916785258,1
463,Exp1,d11032021,BcmPt,reward_learning,3.0,79.0,13.0,1.0,141.0,501.0,-0.45778272943390474,1.0,564.0,-0.1918190879160178,1
464,Exp1,d11032021,BcmPt,reward_learning,3.0,80.0,57.0,1.0,148.0,529.0,-0.2831418017134484,1.0,571.0,-0.15885171526139782,1
465,Exp1,d11032021,BcmPt,reward_learning,3.0,81.0,15.0,-1.0,0.0,446.0,-0.8008274088848011,-1.0,580.0,-0.11646509327688644,1
466,Exp1,d11032021,BcmPt,reward_learning,3.0,82.0,2.0,-1.0,0.0,612.0,0.23454380545790426,-1.0,665.0,0.2838530032434989,1
467,Exp1,d11032021,BcmPt,reward_learning,3.0,83.0,24.0,1.0,146.0,556.0,-0.11473804998300838,1.0,483.0,-0.5732986857766204,1
468,Exp1,d11032021,BcmPt,reward_learning,3.0,84.0,27.0,1.0,145.0,665.0,0.565114132928768,1.0,925.0,1.5083554161293835,1
469,Exp1,d11032021,BcmPt,reward_learning,3.0,85.0,16.0,-1.0,0.0,502.0,-0.4515455534438884,-1.0,536.0,-0.3236885785344977,1
470,Exp1,d11032021,BcmPt,reward_learning,3.0,86.0,59.0,1.0,150.0,634.0,0.3717616772382628,1.0,589.0,-0.07407847129237505,1
471,Exp1,d11032021,BcmPt,reward_learning,3.0,87.0,13.0,1.0,141.0,406.0,-1.050314448485453,1.0,545.0,-0.2813019565499863,1
472,Exp1,d11032021,BcmPt,reward_learning,3.0,88.0,49.0,-1.0,0.0,452.0,-0.7634043529447033,-1.0,766.0,0.7595250944030156,1
473,Exp1,d11032021,BcmPt,reward_learning,3.0,89.0,57.0,1.0,148.0,499.0,-0.4702570814139373,1.0,458.0,-0.691039302400263,1
474,Exp1,d11032021,BcmPt,reward_learning,3.0,90.0,19.0,-1.0,0.0,556.0,-0.11473804998300838,-1.0,556.0,-0.22949608523558349,1
475,Exp1,d11032021,BcmPt,reward_learning,3.0,91.0,46.0,-1.0,0.0,485.0,-0.5575775452741655,-1.0,396.0,-0.9830360316268971,1
476,Exp1,d11032021,BcmPt,reward_learning,3.0,92.0,15.0,-1.0,0.0,494.0,-0.5014429613640188,-1.0,445.0,-0.7522644230445573,1
477,Exp1,d11032021,BcmPt,reward_learning,3.0,93.0,56.0,-1.0,0.0,413.0,-1.006654216555339,-1.0,519.0,-0.40375219783857474,1
478,Exp1,d11032021,BcmPt,reward_learning,3.0,94.0,23.0,1.0,156.0,409.0,-1.031602920515404,1.0,382.0,-1.048970776936137,1
479,Exp1,d11032021,BcmPt,reward_learning,3.0,95.0,42.0,1.0,155.0,474.0,-0.6261864811643447,1.0,186.0,-1.9720572112654962,1
480,Exp1,d11032021,8gPGn,reward_learning,1.0,0.0,38.0,-1.0,0.0,1069.0,4.027374561855469,-1.0,1296.0,3.834637876563717,1
481,Exp1,d11032021,8gPGn,reward_learning,1.0,1.0,55.0,-1.0,0.0,792.0,2.0510699973812,-1.0,1249.0,3.573366907715668,1
482,Exp1,d11032021,8gPGn,reward_learning,1.0,2.0,38.0,-1.0,0.0,1128.0,4.44832029941497,-1.0,1009.0,2.239217279555419,1
483,Exp1,d11032021,8gPGn,reward_learning,1.0,3.0,14.0,-1.0,0.0,701.0,1.401814707247054,-1.0,1207.0,3.3398907227876244,1
484,Exp1,d11032021,8gPGn,reward_learning,1.0,4.0,54.0,-1.0,0.0,655.0,1.073619725421002,-1.0,1105.0,2.7728771308195186,1
485,Exp1,d11032021,8gPGn,reward_learning,1.0,5.0,21.0,-1.0,0.0,596.0,0.6526739878615009,-1.0,913.0,1.7055574282913188,1
486,Exp1,d11032021,8gPGn,reward_learning,1.0,6.0,15.0,1.0,156.0,499.0,-0.03938934338039105,1.0,1023.0,2.317042674531433,1
487,Exp1,d11032021,8gPGn,reward_learning,1.0,7.0,43.0,1.0,154.0,509.0,0.031957391799185435,1.0,727.0,0.6715914664671255,1
488,Exp1,d11032021,8gPGn,reward_learning,1.0,8.0,40.0,1.0,148.0,448.0,-0.40325769279623114,1.0,764.0,0.877272867475164,1
489,Exp1,d11032021,8gPGn,reward_learning,1.0,9.0,14.0,-1.0,0.0,343.0,-1.1523984121817843,-1.0,738.0,0.732739991091137,1
490,Exp1,d11032021,8gPGn,reward_learning,1.0,10.0,35.0,1.0,152.0,442.0,-0.446065733903977,1.0,620.0,0.07678309057901435,1
491,Exp1,d11032021,8gPGn,reward_learning,1.0,11.0,21.0,-1.0,0.0,463.0,-0.2962375900268664,-1.0,570.0,-0.20116474862103761,1
492,Exp1,d11032021,8gPGn,reward_learning,1.0,12.0,54.0,-1.0,0.0,470.0,-0.24629487540116285,-1.0,647.0,0.2268749237470424,1
493,Exp1,d11032021,8gPGn,reward_learning,1.0,13.0,43.0,1.0,154.0,476.0,-0.20348683429341696,1.0,571.0,-0.19560579183703658,1
494,Exp1,d11032021,8gPGn,reward_learning,1.0,14.0,6.0,-1.0,0.0,423.0,-0.5816245307451723,-1.0,582.0,-0.13445726721302514,1
495,Exp1,d11032021,8gPGn,reward_learning,1.0,15.0,42.0,1.0,144.0,466.0,-0.2748335694729935,1.0,644.0,0.2101980533950393,1
496,Exp1,d11032021,8gPGn,reward_learning,1.0,16.0,42.0,1.0,144.0,655.0,1.073619725421002,1.0,588.0,-0.1011035265090189,1
497,Exp1,d11032021,8gPGn,reward_learning,1.0,17.0,27.0,1.0,150.0,441.0,-0.4532004074219347,1.0,767.0,0.8939497378271671,1
498,Exp1,d11032021,8gPGn,reward_learning,1.0,18.0,27.0,1.0,150.0,497.0,-0.053658690416306346,1.0,525.0,-0.4513178039010844,1
499,Exp1,d11032021,8gPGn,reward_learning,1.0,19.0,40.0,1.0,148.0,449.0,-0.3961230192782735,1.0,498.0,-0.6014096370691124,1
500,Exp1,d11032021,8gPGn,reward_learning,1.0,20.0,35.0,1.0,152.0,433.0,-0.5102777955655958,1.0,564.0,-0.23451848932504385,1
501,Exp1,d11032021,8gPGn,reward_learning,1.0,21.0,6.0,-1.0,0.0,453.0,-0.3675843252064429,-1.0,595.0,-0.062190829021011626,1
502,Exp1,d11032021,8gPGn,reward_learning,1.0,22.0,28.0,1.0,152.0,611.0,0.7596940906308656,1.0,608.0,0.010075609171001884,1
503,Exp1,d11032021,8gPGn,reward_learning,1.0,23.0,55.0,-1.0,0.0,367.0,-0.9811662477508006,-1.0,662.0,0.310259275507058,1
504,Exp1,d11032021,8gPGn,reward_learning,1.0,24.0,24.0,-1.0,0.0,484.0,-0.1464094461497558,-1.0,664.0,0.3213771890750601,1
505,Exp1,d11032021,8gPGn,reward_learning,1.0,25.0,15.0,1.0,156.0,454.0,-0.36044965168848525,1.0,692.0,0.47702797902708916,1
506,Exp1,d11032021,8gPGn,reward_learning,1.0,26.0,3.0,-1.0,0.0,499.0,-0.03938934338039105,-1.0,627.0,0.11569578806702163,1
507,Exp1,d11032021,8gPGn,reward_learning,1.0,27.0,5.0,1.0,143.0,446.0,-0.4175270398321464,1.0,587.0,-0.10666248329301994,1
508,Exp1,d11032021,8gPGn,reward_learning,1.0,28.0,24.0,-1.0,0.0,447.0,-0.4103923663141888,-1.0,547.0,-0.3290207546530615,1
509,Exp1,d11032021,8gPGn,reward_learning,1.0,29.0,5.0,1.0,143.0,783.0,1.9868579357195812,1.0,742.0,0.7549758182271411,1
510,Exp1,d11032021,8gPGn,reward_learning,1.0,30.0,28.0,1.0,152.0,624.0,0.8524448463643151,1.0,679.0,0.40476154083507565,1
511,Exp1,d11032021,8gPGn,reward_learning,1.0,31.0,3.0,-1.0,0.0,667.0,1.159235807636494,-1.0,902.0,1.6444089036673075,1
512,Exp1,d11032021,8gPGn,reward_learning,2.0,32.0,14.0,-1.0,0.0,697.0,1.3732760131752233,-1.0,664.0,0.3213771890750601,1
513,Exp1,d11032021,8gPGn,reward_learning,2.0,33.0,55.0,-1.0,0.0,472.0,-0.23202552836524756,-1.0,430.0,-0.9794186983811831,1
514,Exp1,d11032021,8gPGn,reward_learning,2.0,34.0,42.0,1.0,144.0,569.0,0.46003780287664436,1.0,656.0,0.27690553480305174,1
515,Exp1,d11032021,8gPGn,reward_learning,2.0,35.0,54.0,-1.0,0.0,604.0,0.709751376005162,-1.0,671.0,0.3602898865630674,1
516,Exp1,d11032021,8gPGn,reward_learning,2.0,36.0,40.0,1.0,148.0,440.0,-0.46033508093989234,1.0,727.0,0.6715914664671255,1
517,Exp1,d11032021,8gPGn,reward_learning,2.0,37.0,42.0,1.0,144.0,474.0,-0.21775618132933228,1.0,616.0,0.0545472634430102,1
518,Exp1,d11032021,8gPGn,reward_learning,2.0,38.0,27.0,1.0,150.0,495.0,-0.06792803745222165,1.0,610.0,0.02119352273900396,1
519,Exp1,d11032021,8gPGn,reward_learning,2.0,39.0,28.0,1.0,152.0,452.0,-0.3747189987244005,1.0,553.0,-0.29566701394905526,1
520,Exp1,d11032021,8gPGn,reward_learning,2.0,40.0,5.0,1.0,143.0,382.0,-0.874146144981436,1.0,560.0,-0.256754316461048,1
521,Exp1,d11032021,8gPGn,reward_learning,2.0,41.0,21.0,-1.0,0.0,344.0,-1.1452637386638265,-1.0,494.0,-0.6236454642051166,1
522,Exp1,d11032021,8gPGn,reward_learning,2.0,42.0,15.0,1.0,156.0,422.0,-0.58875920426313,1.0,619.0,0.07122413379501331,1
523,Exp1,d11032021,8gPGn,reward_learning,2.0,43.0,28.0,1.0,152.0,372.0,-0.9454928801610124,1.0,512.0,-0.5235842420930978,1
524,Exp1,d11032021,8gPGn,reward_learning,2.0,44.0,54.0,-1.0,0.0,625.0,0.8595795198822727,-1.0,543.0,-0.35125658178906566,1
525,Exp1,d11032021,8gPGn,reward_learning,2.0,45.0,15.0,1.0,156.0,399.0,-0.7528566951761559,1.0,563.0,-0.24007744610904488,1
526,Exp1,d11032021,8gPGn,reward_learning,2.0,46.0,21.0,-1.0,0.0,602.0,0.6954820289692467,-1.0,505.0,-0.5624969395811051,1
527,Exp1,d11032021,8gPGn,reward_learning,2.0,47.0,43.0,1.0,154.0,495.0,-0.06792803745222165,1.0,570.0,-0.20116474862103761,1
528,Exp1,d11032021,8gPGn,reward_learning,2.0,48.0,6.0,-1.0,0.0,572.0,0.4814418234305173,-1.0,528.0,-0.43464093354908123,1
529,Exp1,d11032021,8gPGn,reward_learning,2.0,49.0,35.0,1.0,152.0,361.0,-1.0239742888585466,1.0,519.0,-0.4846715446050906,1
530,Exp1,d11032021,8gPGn,reward_learning,2.0,50.0,38.0,-1.0,0.0,449.0,-0.3961230192782735,-1.0,585.0,-0.11778039686102201,1
531,Exp1,d11032021,8gPGn,reward_learning,2.0,51.0,3.0,-1.0,0.0,620.0,0.8239061522924844,-1.0,600.0,-0.03439604510100643,1
532,Exp1,d11032021,8gPGn,reward_learning,2.0,52.0,6.0,-1.0,0.0,663.0,1.1306971135646633,-1.0,557.0,-0.2734311868130511,1
533,Exp1,d11032021,8gPGn,reward_learning,2.0,53.0,3.0,-1.0,0.0,454.0,-0.36044965168848525,-1.0,567.0,-0.21784161897304072,1
534,Exp1,d11032021,8gPGn,reward_learning,2.0,54.0,24.0,-1.0,0.0,467.0,-0.2676988959550358,-1.0,551.0,-0.3067849275170573,1
535,Exp1,d11032021,8gPGn,reward_learning,2.0,55.0,35.0,1.0,152.0,448.0,-0.40325769279623114,1.0,559.0,-0.26231327324504905,1
536,Exp1,d11032021,8gPGn,reward_learning,2.0,56.0,5.0,1.0,143.0,610.0,0.752559417112908,1.0,677.0,0.3936436272670736,1
537,Exp1,d11032021,8gPGn,reward_learning,2.0,57.0,14.0,-1.0,0.0,509.0,0.031957391799185435,-1.0,655.0,0.2713465780190507,1
538,Exp1,d11032021,8gPGn,reward_learning,2.0,58.0,43.0,1.0,154.0,443.0,-0.43893106038601937,1.0,473.0,-0.7403835566691385,1
539,Exp1,d11032021,8gPGn,reward_learning,2.0,59.0,24.0,-1.0,0.0,399.0,-0.7528566951761559,-1.0,470.0,-0.7570604270211415,1
540,Exp1,d11032021,8gPGn,reward_learning,2.0,60.0,27.0,1.0,150.0,444.0,-0.4317963868680617,1.0,666.0,0.33249510264306215,1
541,Exp1,d11032021,8gPGn,reward_learning,2.0,61.0,38.0,-1.0,0.0,729.0,1.601585565749868,-1.0,515.0,-0.5069073717410948,1
542,Exp1,d11032021,8gPGn,reward_learning,2.0,62.0,55.0,-1.0,0.0,568.0,0.4529031293586867,-1.0,619.0,0.07122413379501331,1
543,Exp1,d11032021,8gPGn,reward_learning,2.0,63.0,40.0,1.0,148.0,477.0,-0.1963521607754593,1.0,529.0,-0.4290819767650802,1
544,Exp1,d11032021,8gPGn,reward_learning,3.0,64.0,42.0,1.0,144.0,397.0,-0.7671260422120713,1.0,526.0,-0.44575884711708336,1
545,Exp1,d11032021,8gPGn,reward_learning,3.0,65.0,24.0,-1.0,0.0,473.0,-0.2248908548472899,-1.0,345.0,-1.4519300250212714,1
546,Exp1,d11032021,8gPGn,reward_learning,3.0,66.0,27.0,1.0,150.0,428.0,-0.5459511631553841,1.0,527.0,-0.44019989033308227,1
547,Exp1,d11032021,8gPGn,reward_learning,3.0,67.0,40.0,1.0,148.0,759.0,1.8156257712885975,1.0,565.0,-0.22895953254104282,1
548,Exp1,d11032021,8gPGn,reward_learning,3.0,68.0,14.0,-1.0,0.0,603.0,0.7026167024872044,-1.0,498.0,-0.6014096370691124,1
549,Exp1,d11032021,8gPGn,reward_learning,3.0,69.0,38.0,-1.0,0.0,560.0,0.3958257412150255,-1.0,438.0,-0.9349470441091747,1
550,Exp1,d11032021,8gPGn,reward_learning,3.0,70.0,40.0,1.0,148.0,263.0,-1.7231722936183962,1.0,565.0,-0.22895953254104282,1
551,Exp1,d11032021,8gPGn,reward_learning,3.0,71.0,28.0,1.0,152.0,408.0,-0.6886446335145371,1.0,464.0,-0.7904141677251477,1
552,Exp1,d11032021,8gPGn,reward_learning,3.0,72.0,35.0,1.0,152.0,639.0,0.9594649491336797,1.0,513.0,-0.5180252853090969,1
553,Exp1,d11032021,8gPGn,reward_learning,3.0,73.0,24.0,-1.0,0.0,487.0,-0.12500542559588282,-1.0,469.0,-0.7626193838051426,1
554,Exp1,d11032021,8gPGn,reward_learning,3.0,74.0,42.0,1.0,144.0,385.0,-0.852742124427563,1.0,698.0,0.5103817197310954,1
555,Exp1,d11032021,8gPGn,reward_learning,3.0,75.0,14.0,-1.0,0.0,289.0,-1.5376707821514972,-1.0,455.0,-0.8404447787811571,1
556,Exp1,d11032021,8gPGn,reward_learning,3.0,76.0,21.0,-1.0,0.0,548.0,0.31020965899953373,-1.0,448.0,-0.8793574762691644,1
557,Exp1,d11032021,8gPGn,reward_learning,3.0,77.0,5.0,1.0,143.0,356.0,-1.0596476564483348,1.0,569.0,-0.20672370540503865,1
558,Exp1,d11032021,8gPGn,reward_learning,3.0,78.0,21.0,-1.0,0.0,372.0,-0.9454928801610124,-1.0,404.0,-1.12395157476521,1
559,Exp1,d11032021,8gPGn,reward_learning,3.0,79.0,5.0,1.0,143.0,476.0,-0.20348683429341696,1.0,573.0,-0.18448787826903448,1
560,Exp1,d11032021,8gPGn,reward_learning,3.0,80.0,38.0,-1.0,0.0,428.0,-0.5459511631553841,-1.0,519.0,-0.4846715446050906,1
561,Exp1,d11032021,8gPGn,reward_learning,3.0,81.0,27.0,1.0,150.0,391.0,-0.8099340833198171,1.0,502.0,-0.5791738099331083,1
562,Exp1,d11032021,8gPGn,reward_learning,3.0,82.0,6.0,-1.0,0.0,467.0,-0.2676988959550358,-1.0,683.0,0.42699736797107984,1
563,Exp1,d11032021,8gPGn,reward_learning,3.0,83.0,15.0,1.0,156.0,501.0,-0.025119996344475752,1.0,419.0,-1.0405672230051946,1
564,Exp1,d11032021,8gPGn,reward_learning,3.0,84.0,15.0,1.0,156.0,329.0,-1.2522838414331914,1.0,419.0,-1.0405672230051946,1
565,Exp1,d11032021,8gPGn,reward_learning,3.0,85.0,3.0,-1.0,0.0,357.0,-1.0525129829303772,-1.0,401.0,-1.1406284451172133,1
566,Exp1,d11032021,8gPGn,reward_learning,3.0,86.0,35.0,1.0,152.0,422.0,-0.58875920426313,1.0,437.0,-0.9405060008931758,1
567,Exp1,d11032021,8gPGn,reward_learning,3.0,87.0,43.0,1.0,154.0,452.0,-0.3747189987244005,1.0,496.0,-0.6125275506371145,1
568,Exp1,d11032021,8gPGn,reward_learning,3.0,88.0,6.0,-1.0,0.0,396.0,-0.7742607157300289,-1.0,428.0,-0.9905366119491852,1
569,Exp1,d11032021,8gPGn,reward_learning,3.0,89.0,28.0,1.0,152.0,616.0,0.7953674582206538,1.0,415.0,-1.0628030501411987,1
570,Exp1,d11032021,8gPGn,reward_learning,3.0,90.0,55.0,-1.0,0.0,522.0,0.12470814753263487,-1.0,424.0,-1.0127724390851893,1
571,Exp1,d11032021,8gPGn,reward_learning,3.0,91.0,54.0,-1.0,0.0,521.0,0.11757347401467722,-1.0,443.0,-0.9071522601891696,1
572,Exp1,d11032021,8gPGn,reward_learning,3.0,92.0,3.0,-1.0,0.0,415.0,-0.6387019188888335,-1.0,475.0,-0.7292656431011363,1
573,Exp1,d11032021,8gPGn,reward_learning,3.0,93.0,43.0,1.0,154.0,562.0,0.4100950882509408,1.0,478.0,-0.7125887727491332,1
574,Exp1,d11032021,8gPGn,reward_learning,3.0,94.0,55.0,-1.0,0.0,301.0,-1.4520546999360056,-1.0,890.0,1.5777014222592949,1
575,Exp1,d11032021,8gPGn,reward_learning,3.0,95.0,54.0,-1.0,0.0,464.0,-0.28910291650890874,-1.0,433.0,-0.96274182802918,1
576,Exp1,d11042021,339Ys,reward_learning,1.0,0.0,58.0,1.0,152.0,1238.0,2.050563312508947,1.0,1532.0,2.3706280882820545,1
577,Exp1,d11042021,339Ys,reward_learning,1.0,1.0,55.0,1.0,151.0,1043.0,1.3201840060384962,1.0,924.0,0.40647318804716925,1
578,Exp1,d11042021,339Ys,reward_learning,1.0,2.0,54.0,1.0,153.0,1106.0,1.5561527050520265,1.0,1099.0,0.9718138254503024,1
579,Exp1,d11042021,339Ys,reward_learning,1.0,3.0,12.0,-1.0,0.0,1048.0,1.3389116805633796,-1.0,1487.0,2.225254781521249,1
580,Exp1,d11042021,339Ys,reward_learning,1.0,4.0,12.0,-1.0,0.0,1581.0,3.3352817849159457,-1.0,1047.0,0.8038268931933714,1
581,Exp1,d11042021,339Ys,reward_learning,1.0,5.0,47.0,1.0,150.0,1315.0,2.338969500192151,1.0,1088.0,0.9362781282421054,1
582,Exp1,d11042021,339Ys,reward_learning,1.0,6.0,1.0,-1.0,0.0,813.0,0.4587109778938618,-1.0,1039.0,0.7779827497692281,1
583,Exp1,d11042021,339Ys,reward_learning,1.0,7.0,59.0,-1.0,0.0,1087.0,1.4849875418574698,-1.0,995.0,0.6358399609364404,1
584,Exp1,d11042021,339Ys,reward_learning,1.0,8.0,22.0,-1.0,0.0,963.0,1.0205412136403624,-1.0,1064.0,0.8587456979696757,1
585,Exp1,d11042021,339Ys,reward_learning,1.0,9.0,27.0,1.0,157.0,1026.0,1.2565099126538928,1.0,1128.0,1.0654988453628216,1
586,Exp1,d11042021,339Ys,reward_learning,1.0,10.0,13.0,-1.0,0.0,856.0,0.6197689788078586,-1.0,899.0,0.32571023984672165,1
587,Exp1,d11042021,339Ys,reward_learning,1.0,11.0,43.0,1.0,158.0,572.0,-0.44396293420551614,1.0,908.0,0.3547849011988828,1
588,Exp1,d11042021,339Ys,reward_learning,1.0,12.0,1.0,-1.0,0.0,463.0,-0.8522262388479733,-1.0,918.0,0.3870900804790618,1
589,Exp1,d11042021,339Ys,reward_learning,1.0,13.0,58.0,1.0,152.0,660.0,-0.11435586256756901,1.0,942.0,0.46462251075149147,1
590,Exp1,d11042021,339Ys,reward_learning,1.0,14.0,55.0,1.0,151.0,696.0,0.020483394011591174,1.0,616.0,-0.5885263337823451,1
591,Exp1,d11042021,339Ys,reward_learning,1.0,15.0,13.0,-1.0,0.0,499.0,-0.7173869822688131,-1.0,815.0,0.05434673389321774,1
592,Exp1,d11042021,339Ys,reward_learning,1.0,16.0,32.0,-1.0,0.0,482.0,-0.7810610756534165,-1.0,847.0,0.15772330758979064,1
593,Exp1,d11042021,339Ys,reward_learning,1.0,17.0,29.0,-1.0,0.0,538.0,-0.5713111209747229,-1.0,728.0,-0.22670832584433986,1
594,Exp1,d11042021,339Ys,reward_learning,1.0,18.0,54.0,1.0,153.0,491.0,-0.7473512615086265,1.0,670.0,-0.4140783656693783,1
595,Exp1,d11042021,339Ys,reward_learning,1.0,19.0,43.0,1.0,158.0,675.0,-0.05817283899291893,1.0,567.0,-0.7468217122552223,1
596,Exp1,d11042021,339Ys,reward_learning,1.0,20.0,27.0,1.0,157.0,553.0,-0.5151280974000729,1.0,636.0,-0.523915975221987,1
597,Exp1,d11042021,339Ys,reward_learning,1.0,21.0,7.0,-1.0,0.0,519.0,-0.6424762841692797,-1.0,918.0,0.3870900804790618,1
598,Exp1,d11042021,339Ys,reward_learning,1.0,22.0,32.0,-1.0,0.0,587.0,-0.38777991063086603,-1.0,748.0,-0.1620979672839818,1
599,Exp1,d11042021,339Ys,reward_learning,1.0,23.0,47.0,1.0,150.0,502.0,-0.7061503775538831,1.0,632.0,-0.5368380469340587,1
600,Exp1,d11042021,339Ys,reward_learning,1.0,24.0,46.0,1.0,160.0,603.0,-0.3278513521512393,1.0,1410.0,1.9765049010638704,1
601,Exp1,d11042021,339Ys,reward_learning,1.0,25.0,59.0,-1.0,0.0,664.0,-0.09937372294766232,-1.0,778.0,-0.0651824294434447,1
602,Exp1,d11042021,339Ys,reward_learning,1.0,26.0,53.0,1.0,142.0,575.0,-0.4327263294905861,1.0,964.0,0.5356939051678854,1
603,Exp1,d11042021,339Ys,reward_learning,1.0,27.0,22.0,-1.0,0.0,537.0,-0.5750566558796997,-1.0,659.0,-0.4496140628775752,1
604,Exp1,d11042021,339Ys,reward_learning,1.0,28.0,29.0,-1.0,0.0,665.0,-0.09562818804268565,-1.0,1024.0,0.7295249808489596,1
605,Exp1,d11042021,339Ys,reward_learning,1.0,29.0,7.0,-1.0,0.0,606.0,-0.3166147474363093,-1.0,989.0,0.616456853368333,1
606,Exp1,d11042021,339Ys,reward_learning,1.0,30.0,53.0,1.0,142.0,318.0,-1.3953288000695907,1.0,836.0,0.12218761038159372,1
607,Exp1,d11042021,339Ys,reward_learning,1.0,31.0,46.0,1.0,160.0,279.0,-1.541404661363681,1.0,1022.0,0.7230639449929238,1
608,Exp1,d11042021,339Ys,reward_learning,2.0,32.0,7.0,-1.0,0.0,862.0,0.6422421882377187,-1.0,939.0,0.4549309569674378,1
609,Exp1,d11042021,339Ys,reward_learning,2.0,33.0,46.0,1.0,160.0,344.0,-1.2979448925401973,1.0,705.0,-0.30101023818875167,1
610,Exp1,d11042021,339Ys,reward_learning,2.0,34.0,22.0,-1.0,0.0,575.0,-0.4327263294905861,-1.0,783.0,-0.04902983980335518,1
611,Exp1,d11042021,339Ys,reward_learning,2.0,35.0,32.0,-1.0,0.0,547.0,-0.5376013068299329,-1.0,775.0,-0.07487398322749841,1
612,Exp1,d11042021,339Ys,reward_learning,2.0,36.0,32.0,-1.0,0.0,747.0,0.21150567416540142,-1.0,595.0,-0.6563672102707211,1
613,Exp1,d11042021,339Ys,reward_learning,2.0,37.0,22.0,-1.0,0.0,498.0,-0.7211325171737898,-1.0,787.0,-0.03610776809128356,1
614,Exp1,d11042021,339Ys,reward_learning,2.0,38.0,12.0,-1.0,0.0,741.0,0.1890324647355414,-1.0,783.0,-0.04902983980335518,1
615,Exp1,d11042021,339Ys,reward_learning,2.0,39.0,1.0,-1.0,0.0,726.0,0.1328494411608913,-1.0,946.0,0.4775445824635631,1
616,Exp1,d11042021,339Ys,reward_learning,2.0,40.0,27.0,1.0,157.0,699.0,0.03171999872652119,1.0,824.0,0.08342139524537887,1
617,Exp1,d11042021,339Ys,reward_learning,2.0,41.0,29.0,-1.0,0.0,778.0,0.32761725621967824,-1.0,926.0,0.41293422390320506,1
618,Exp1,d11042021,339Ys,reward_learning,2.0,42.0,59.0,-1.0,0.0,438.0,-0.9458646114723901,-1.0,1132.0,1.078420917074893,1
619,Exp1,d11042021,339Ys,reward_learning,2.0,43.0,29.0,-1.0,0.0,597.0,-0.3503245615810993,-1.0,807.0,0.028502590469074506,1
620,Exp1,d11042021,339Ys,reward_learning,2.0,44.0,54.0,1.0,153.0,296.0,-1.4777305679790775,1.0,835.0,0.1189570924535758,1
621,Exp1,d11042021,339Ys,reward_learning,2.0,45.0,43.0,1.0,158.0,436.0,-0.9533556812823435,1.0,1443.0,2.0831119926884614,1
622,Exp1,d11042021,339Ys,reward_learning,2.0,46.0,59.0,-1.0,0.0,950.0,0.9718492598756657,-1.0,731.0,-0.21701677206028616,1
623,Exp1,d11042021,339Ys,reward_learning,2.0,47.0,46.0,1.0,160.0,961.0,1.0130501438304091,1.0,368.0,-1.3896947799307853,1
624,Exp1,d11042021,339Ys,reward_learning,2.0,48.0,55.0,1.0,151.0,1034.0,1.2864741918937062,1.0,589.0,-0.6757503178388284,1
625,Exp1,d11042021,339Ys,reward_learning,2.0,49.0,12.0,-1.0,0.0,714.0,0.08790302230117127,-1.0,756.0,-0.13625382385983859,1
626,Exp1,d11042021,339Ys,reward_learning,2.0,50.0,13.0,-1.0,0.0,1636.0,3.5412862046896625,-1.0,827.0,0.09311294902943258,1
627,Exp1,d11042021,339Ys,reward_learning,2.0,51.0,1.0,-1.0,0.0,668.0,-0.08439158332775563,-1.0,667.0,-0.423769919453432,1
628,Exp1,d11042021,339Ys,reward_learning,2.0,52.0,55.0,1.0,151.0,1082.0,1.4662598673325864,1.0,494.0,-0.9826495210005293,1
629,Exp1,d11042021,339Ys,reward_learning,2.0,53.0,53.0,1.0,142.0,671.0,-0.07315497861282562,1.0,755.0,-0.1394843417878565,1
630,Exp1,d11042021,339Ys,reward_learning,2.0,54.0,7.0,-1.0,0.0,580.0,-0.41399865496570276,-1.0,820.0,0.07049932353330725,1
631,Exp1,d11042021,339Ys,reward_learning,2.0,55.0,27.0,1.0,157.0,689.0,-0.005735350323245529,1.0,811.0,0.04142466218114612,1
632,Exp1,d11042021,339Ys,reward_learning,2.0,56.0,58.0,1.0,152.0,834.0,0.5373672108983719,1.0,1096.0,0.9621222716662486,1
633,Exp1,d11042021,339Ys,reward_learning,2.0,57.0,53.0,1.0,142.0,817.0,0.47369311751376847,1.0,978.0,0.5809211561601361,1
634,Exp1,d11042021,339Ys,reward_learning,2.0,58.0,43.0,1.0,158.0,586.0,-0.39152544553584273,1.0,767.0,-0.10071812665164163,1
635,Exp1,d11042021,339Ys,reward_learning,2.0,59.0,47.0,1.0,150.0,759.0,0.2564520930251215,1.0,748.0,-0.1620979672839818,1
636,Exp1,d11042021,339Ys,reward_learning,2.0,60.0,47.0,1.0,150.0,895.0,0.7658448401019489,1.0,463.0,-1.0827955767690842,1
637,Exp1,d11042021,339Ys,reward_learning,2.0,61.0,54.0,1.0,153.0,702.0,0.042956603441451205,1.0,1187.0,1.2560994031158779,1
638,Exp1,d11042021,339Ys,reward_learning,2.0,62.0,13.0,-1.0,0.0,1184.0,1.848304427640207,-1.0,540.0,-0.8340456963117058,1
639,Exp1,d11042021,339Ys,reward_learning,2.0,63.0,58.0,1.0,152.0,548.0,-0.5338557719249563,1.0,1028.0,0.7424470525610312,1
640,Exp1,d11042021,339Ys,reward_learning,3.0,64.0,12.0,-1.0,0.0,476.0,-0.8035342850832766,-1.0,760.0,-0.12333175214776697,1
641,Exp1,d11042021,339Ys,reward_learning,3.0,65.0,43.0,1.0,158.0,1142.0,1.6909919616311868,1.0,427.0,-1.1990942221777288,1
642,Exp1,d11042021,339Ys,reward_learning,3.0,66.0,27.0,1.0,157.0,471.0,-0.82226195960816,1.0,360.0,-1.4155389233549285,1
643,Exp1,d11042021,339Ys,reward_learning,3.0,67.0,32.0,-1.0,0.0,516.0,-0.6537128888842098,-1.0,524.0,-0.8857339831599922,1
644,Exp1,d11042021,339Ys,reward_learning,3.0,68.0,47.0,1.0,150.0,578.0,-0.4214897247756561,1.0,584.0,-0.691902907478918,1
645,Exp1,d11042021,339Ys,reward_learning,3.0,69.0,59.0,-1.0,0.0,659.0,-0.11810139747254568,-1.0,484.0,-1.0149547002807084,1
646,Exp1,d11042021,339Ys,reward_learning,3.0,70.0,54.0,1.0,153.0,402.0,-1.0807038680515504,1.0,600.0,-0.6402146206306315,1
647,Exp1,d11042021,339Ys,reward_learning,3.0,71.0,59.0,-1.0,0.0,333.0,-1.3391457764949406,-1.0,569.0,-0.7403606763991866,1
648,Exp1,d11042021,339Ys,reward_learning,3.0,72.0,29.0,-1.0,0.0,532.0,-0.593784330404583,-1.0,500.0,-0.9632664134324219,1
649,Exp1,d11042021,339Ys,reward_learning,3.0,73.0,7.0,-1.0,0.0,672.0,-0.06940944370784895,-1.0,747.0,-0.16532848521199972,1
650,Exp1,d11042021,339Ys,reward_learning,3.0,74.0,1.0,-1.0,0.0,783.0,0.34634493074456163,-1.0,236.0,-1.8161231464291485,1
651,Exp1,d11042021,339Ys,reward_learning,3.0,75.0,12.0,-1.0,0.0,534.0,-0.5862932605946296,-1.0,331.0,-1.5092239432674477,1
652,Exp1,d11042021,339Ys,reward_learning,3.0,76.0,58.0,1.0,152.0,1075.0,1.4400411229977497,1.0,267.0,-1.7159770906605933,1
653,Exp1,d11042021,339Ys,reward_learning,3.0,77.0,54.0,1.0,153.0,872.0,0.6796975372874854,1.0,450.0,-1.124792309833317,1
654,Exp1,d11042021,339Ys,reward_learning,3.0,78.0,13.0,-1.0,0.0,936.0,0.9194117712059924,-1.0,288.0,-1.6481362141722176,1
655,Exp1,d11042021,339Ys,reward_learning,3.0,79.0,32.0,-1.0,0.0,535.0,-0.582547725689653,-1.0,1944.0,3.7016014746254307,1
656,Exp1,d11042021,339Ys,reward_learning,3.0,80.0,43.0,1.0,158.0,779.0,0.33136279112465494,1.0,370.0,-1.3832337440747493,1
657,Exp1,d11042021,339Ys,reward_learning,3.0,81.0,29.0,-1.0,0.0,563.0,-0.47767274835030615,-1.0,396.0,-1.299240277946284,1
658,Exp1,d11042021,339Ys,reward_learning,3.0,82.0,55.0,1.0,151.0,714.0,0.08790302230117127,1.0,310.0,-1.5770648197558237,1
659,Exp1,d11042021,339Ys,reward_learning,3.0,83.0,22.0,-1.0,0.0,312.0,-1.4178020094994508,-1.0,412.0,-1.2475519910979973,1
660,Exp1,d11042021,339Ys,reward_learning,3.0,84.0,53.0,1.0,142.0,787.0,0.3613270703644683,1.0,415.0,-1.2378604373139437,1
661,Exp1,d11042021,339Ys,reward_learning,3.0,85.0,55.0,1.0,151.0,656.0,-0.12933800218747568,1.0,859.0,0.1964895227260055,1
662,Exp1,d11042021,339Ys,reward_learning,3.0,86.0,27.0,1.0,157.0,554.0,-0.5113825624950962,1.0,522.0,-0.892195019016028,1
663,Exp1,d11042021,339Ys,reward_learning,3.0,87.0,7.0,-1.0,0.0,363.0,-1.2267797293456404,-1.0,622.0,-0.5691432262142376,1
664,Exp1,d11042021,339Ys,reward_learning,3.0,88.0,53.0,1.0,142.0,347.0,-1.2867082878252671,1.0,1213.0,1.3400928692443435,1
665,Exp1,d11042021,339Ys,reward_learning,3.0,89.0,22.0,-1.0,0.0,433.0,-0.9645922859972735,-1.0,1364.0,1.8279010763750467,1
666,Exp1,d11042021,339Ys,reward_learning,3.0,90.0,46.0,1.0,160.0,577.0,-0.42523525968063275,1.0,1196.0,1.285174064468039,1
667,Exp1,d11042021,339Ys,reward_learning,3.0,91.0,47.0,1.0,150.0,371.0,-1.196815450105827,1.0,1343.0,1.7600601998866707,1
668,Exp1,d11042021,339Ys,reward_learning,3.0,92.0,1.0,-1.0,0.0,519.0,-0.6424762841692797,-1.0,796.0,-0.007033106739122433,1
669,Exp1,d11042021,339Ys,reward_learning,3.0,93.0,58.0,1.0,152.0,443.0,-0.9271369369475068,1.0,663.0,-0.4366919911655036,1
670,Exp1,d11042021,339Ys,reward_learning,3.0,94.0,46.0,1.0,160.0,503.0,-0.7024048426489065,1.0,580.0,-0.7048249791909896,1
671,Exp1,d11042021,339Ys,reward_learning,3.0,95.0,13.0,-1.0,0.0,700.0,0.03546553363149786,-1.0,659.0,-0.4496140628775752,1
672,Exp1,d11032021,JY6WO,reward_learning,1.0,0.0,31.0,1.0,150.0,734.0,2.88310236906206,1.0,928.0,2.696783930786491,1
673,Exp1,d11032021,JY6WO,reward_learning,1.0,1.0,32.0,1.0,148.0,490.0,0.5910242434542101,1.0,638.0,0.7962076547290802,1
674,Exp1,d11032021,JY6WO,reward_learning,1.0,2.0,28.0,-1.0,0.0,461.0,0.31860512196803126,-1.0,728.0,1.3860416714365524,1
675,Exp1,d11032021,JY6WO,reward_learning,1.0,3.0,40.0,1.0,145.0,591.0,1.5397942872509023,1.0,758.0,1.5826530103390433,1
676,Exp1,d11032021,JY6WO,reward_learning,1.0,4.0,22.0,1.0,155.0,571.0,1.3519190310535374,1.0,797.0,1.8382477509122814,1
677,Exp1,d11032021,JY6WO,reward_learning,1.0,5.0,44.0,1.0,157.0,431.0,0.03679223767198411,1.0,527.0,0.06874570078986422,1
678,Exp1,d11032021,JY6WO,reward_learning,1.0,6.0,40.0,1.0,145.0,502.0,0.703749397172629,1.0,617.0,0.6585797174973366,1
679,Exp1,d11032021,JY6WO,reward_learning,1.0,7.0,52.0,-1.0,0.0,590.0,1.530400524441034,-1.0,638.0,0.7962076547290802,1
680,Exp1,d11032021,JY6WO,reward_learning,1.0,8.0,13.0,1.0,157.0,391.0,-0.3389582747227454,1.0,577.0,0.39643126562734887,1
681,Exp1,d11032021,JY6WO,reward_learning,1.0,9.0,54.0,-1.0,0.0,441.0,0.1307298657706665,-1.0,678.0,1.0583561065990679,1
682,Exp1,d11032021,JY6WO,reward_learning,1.0,10.0,41.0,-1.0,0.0,490.0,0.5910242434542101,-1.0,628.0,0.7306705417615832,1
683,Exp1,d11032021,JY6WO,reward_learning,1.0,11.0,27.0,-1.0,0.0,591.0,1.5397942872509023,-1.0,576.0,0.3898775543305992,1
684,Exp1,d11032021,JY6WO,reward_learning,1.0,12.0,28.0,-1.0,0.0,558.0,1.2298001145252504,-1.0,527.0,0.06874570078986422,1
685,Exp1,d11032021,JY6WO,reward_learning,1.0,13.0,36.0,-1.0,0.0,551.0,1.1640437748561727,-1.0,517.0,0.0032085878223672855,1
686,Exp1,d11032021,JY6WO,reward_learning,1.0,14.0,36.0,-1.0,0.0,430.0,0.02739847486211587,-1.0,447.0,-0.4555512029501112,1
687,Exp1,d11032021,JY6WO,reward_learning,1.0,15.0,19.0,-1.0,0.0,569.0,1.3331315054338009,-1.0,506.0,-0.06888223644187934,1
688,Exp1,d11032021,JY6WO,reward_learning,1.0,16.0,13.0,1.0,157.0,510.0,0.7788994996515749,1.0,437.0,-0.5210883159176082,1
689,Exp1,d11032021,JY6WO,reward_learning,1.0,17.0,45.0,1.0,158.0,650.0,2.0940262930331284,1.0,607.0,0.5930426045298397,1
690,Exp1,d11032021,JY6WO,reward_learning,1.0,18.0,7.0,1.0,143.0,401.0,-0.24502064662406303,1.0,637.0,0.7896539434323304,1
691,Exp1,d11032021,JY6WO,reward_learning,1.0,19.0,19.0,-1.0,0.0,372.0,-0.517439768110242,-1.0,517.0,0.0032085878223672855,1
692,Exp1,d11032021,JY6WO,reward_learning,1.0,20.0,52.0,-1.0,0.0,351.0,-0.714708787117475,-1.0,437.0,-0.5210883159176082,1
693,Exp1,d11032021,JY6WO,reward_learning,1.0,21.0,44.0,1.0,157.0,575.0,1.3894940822930104,1.0,656.0,0.9141744580705746,1
694,Exp1,d11032021,JY6WO,reward_learning,1.0,22.0,45.0,1.0,158.0,338.0,-0.8368277036457621,1.0,597.0,0.5275054915623427,1
695,Exp1,d11032021,JY6WO,reward_learning,1.0,23.0,41.0,-1.0,0.0,410.0,-0.1604767813352489,-1.0,418.0,-0.6456088305558523,1
696,Exp1,d11032021,JY6WO,reward_learning,1.0,24.0,7.0,1.0,143.0,361.0,-0.6207711590187925,1.0,637.0,0.7896539434323304,1
697,Exp1,d11032021,JY6WO,reward_learning,1.0,25.0,31.0,1.0,150.0,452.0,0.23406125667921712,1.0,517.0,0.0032085878223672855,1
698,Exp1,d11032021,JY6WO,reward_learning,1.0,26.0,58.0,-1.0,0.0,395.0,-0.30138322348327246,-1.0,627.0,0.7241168304648335,1
699,Exp1,d11032021,JY6WO,reward_learning,1.0,27.0,32.0,1.0,148.0,351.0,-0.714708787117475,1.0,517.0,0.0032085878223672855,1
700,Exp1,d11032021,JY6WO,reward_learning,1.0,28.0,58.0,-1.0,0.0,401.0,-0.24502064662406303,-1.0,578.0,0.40298497692409857,1
701,Exp1,d11032021,JY6WO,reward_learning,1.0,29.0,54.0,-1.0,0.0,680.0,2.3758391773291754,-1.0,578.0,0.40298497692409857,1
702,Exp1,d11032021,JY6WO,reward_learning,1.0,30.0,22.0,1.0,155.0,350.0,-0.7241025499273431,1.0,647.0,0.8551910563998274,1
703,Exp1,d11032021,JY6WO,reward_learning,1.0,31.0,27.0,-1.0,0.0,480.0,0.4970866153555278,-1.0,437.0,-0.5210883159176082,1
704,Exp1,d11032021,JY6WO,reward_learning,2.0,32.0,19.0,-1.0,0.0,544.0,1.098287435187095,-1.0,917.0,2.6246931065222445,1
705,Exp1,d11032021,JY6WO,reward_learning,2.0,33.0,32.0,1.0,148.0,510.0,0.7788994996515749,1.0,338.0,-1.1699057342958277,1
706,Exp1,d11032021,JY6WO,reward_learning,2.0,34.0,28.0,-1.0,0.0,561.0,1.257981402954855,-1.0,377.0,-0.9143109937225897,1
707,Exp1,d11032021,JY6WO,reward_learning,2.0,35.0,44.0,1.0,157.0,393.0,-0.3201707491030089,1.0,327.0,-1.2419965585600743,1
708,Exp1,d11032021,JY6WO,reward_learning,2.0,36.0,7.0,1.0,143.0,331.0,-0.9025840433148397,1.0,606.0,0.58648889323309,1
709,Exp1,d11032021,JY6WO,reward_learning,2.0,37.0,27.0,-1.0,0.0,510.0,0.7788994996515749,-1.0,367.0,-0.9798481066900867,1
710,Exp1,d11032021,JY6WO,reward_learning,2.0,38.0,36.0,-1.0,0.0,461.0,0.31860512196803126,-1.0,357.0,-1.0453852196575837,1
711,Exp1,d11032021,JY6WO,reward_learning,2.0,39.0,22.0,1.0,155.0,472.0,0.42193651287658185,1.0,527.0,0.06874570078986422,1
712,Exp1,d11032021,JY6WO,reward_learning,2.0,40.0,41.0,-1.0,0.0,480.0,0.4970866153555278,-1.0,377.0,-0.9143109937225897,1
713,Exp1,d11032021,JY6WO,reward_learning,2.0,41.0,27.0,-1.0,0.0,328.0,-0.9307653317444444,-1.0,438.0,-0.5145346046208584,1
714,Exp1,d11032021,JY6WO,reward_learning,2.0,42.0,31.0,1.0,150.0,520.0,0.8728371277502573,1.0,358.0,-1.038831508360834,1
715,Exp1,d11032021,JY6WO,reward_learning,2.0,43.0,40.0,1.0,145.0,501.0,0.6943556343627608,1.0,577.0,0.39643126562734887,1
716,Exp1,d11032021,JY6WO,reward_learning,2.0,44.0,22.0,1.0,155.0,420.0,-0.0665391532365665,1.0,1248.0,4.793971545746393,1
717,Exp1,d11032021,JY6WO,reward_learning,2.0,45.0,54.0,-1.0,0.0,470.0,0.4031489872568454,-1.0,297.0,-1.4386078974625651,1
718,Exp1,d11032021,JY6WO,reward_learning,2.0,46.0,45.0,1.0,158.0,430.0,0.02739847486211587,1.0,507.0,-0.06232852514512965,1
719,Exp1,d11032021,JY6WO,reward_learning,2.0,47.0,19.0,-1.0,0.0,340.0,-0.8180401780260256,-1.0,567.0,0.33089415265985195,1
720,Exp1,d11032021,JY6WO,reward_learning,2.0,48.0,13.0,1.0,157.0,360.0,-0.6301649218286608,1.0,437.0,-0.5210883159176082,1
721,Exp1,d11032021,JY6WO,reward_learning,2.0,49.0,58.0,-1.0,0.0,370.0,-0.5362272937299785,-1.0,447.0,-0.4555512029501112,1
722,Exp1,d11032021,JY6WO,reward_learning,2.0,50.0,7.0,1.0,143.0,380.0,-0.442289665631296,1.0,438.0,-0.5145346046208584,1
723,Exp1,d11032021,JY6WO,reward_learning,2.0,51.0,40.0,1.0,145.0,420.0,-0.0665391532365665,1.0,507.0,-0.06232852514512965,1
724,Exp1,d11032021,JY6WO,reward_learning,2.0,52.0,36.0,-1.0,0.0,520.0,0.8728371277502573,-1.0,297.0,-1.4386078974625651,1
725,Exp1,d11032021,JY6WO,reward_learning,2.0,53.0,31.0,1.0,150.0,310.0,-1.0998530623220728,1.0,377.0,-0.9143109937225897,1
726,Exp1,d11032021,JY6WO,reward_learning,2.0,54.0,13.0,1.0,157.0,422.0,-0.04775162761683003,1.0,486.0,-0.1999564623768732,1
727,Exp1,d11032021,JY6WO,reward_learning,2.0,55.0,28.0,-1.0,0.0,461.0,0.31860512196803126,-1.0,347.0,-1.1109223326250806,1
728,Exp1,d11032021,JY6WO,reward_learning,2.0,56.0,32.0,1.0,148.0,340.0,-0.8180401780260256,1.0,408.0,-0.7111459435233493,1
729,Exp1,d11032021,JY6WO,reward_learning,2.0,57.0,45.0,1.0,158.0,341.0,-0.8086464152161573,1.0,608.0,0.5995963158265893,1
730,Exp1,d11032021,JY6WO,reward_learning,2.0,58.0,58.0,-1.0,0.0,281.0,-1.3722721838082517,-1.0,347.0,-1.1109223326250806,1
731,Exp1,d11032021,JY6WO,reward_learning,2.0,59.0,52.0,-1.0,0.0,390.0,-0.3483520375326137,-1.0,537.0,0.13428281375736115,1
732,Exp1,d11032021,JY6WO,reward_learning,2.0,60.0,44.0,1.0,157.0,231.0,-1.8419603243016636,1.0,457.0,-0.3900140899826143,1
733,Exp1,d11032021,JY6WO,reward_learning,2.0,61.0,54.0,-1.0,0.0,241.0,-1.7480226962029812,-1.0,508.0,-0.05577481384837995,1
734,Exp1,d11032021,JY6WO,reward_learning,2.0,62.0,52.0,-1.0,0.0,390.0,-0.3483520375326137,-1.0,428.0,-0.5800717175883554,1
735,Exp1,d11032021,JY6WO,reward_learning,2.0,63.0,41.0,-1.0,0.0,292.0,-1.268940792899701,-1.0,536.0,0.12772910246061145,1
736,Exp1,d11032021,JY6WO,reward_learning,3.0,64.0,52.0,-1.0,0.0,384.0,-0.4047146143918231,-1.0,527.0,0.06874570078986422,1
737,Exp1,d11032021,JY6WO,reward_learning,3.0,65.0,58.0,-1.0,0.0,330.0,-0.9119778061247079,-1.0,647.0,0.8551910563998274,1
738,Exp1,d11032021,JY6WO,reward_learning,3.0,66.0,54.0,-1.0,0.0,300.0,-1.1937906904207551,-1.0,647.0,0.8551910563998274,1
739,Exp1,d11032021,JY6WO,reward_learning,3.0,67.0,40.0,1.0,145.0,470.0,0.4031489872568454,1.0,427.0,-0.586625428885105,1
740,Exp1,d11032021,JY6WO,reward_learning,3.0,68.0,32.0,1.0,148.0,307.0,-1.1280343507516775,1.0,368.0,-0.973294395393337,1
741,Exp1,d11032021,JY6WO,reward_learning,3.0,69.0,19.0,-1.0,0.0,372.0,-0.517439768110242,-1.0,707.0,1.248413734204809,1
742,Exp1,d11032021,JY6WO,reward_learning,3.0,70.0,22.0,1.0,155.0,402.0,-0.2356268838141948,1.0,507.0,-0.06232852514512965,1
743,Exp1,d11032021,JY6WO,reward_learning,3.0,71.0,13.0,1.0,157.0,410.0,-0.1604767813352489,1.0,287.0,-1.5041450104300622,1
744,Exp1,d11032021,JY6WO,reward_learning,3.0,72.0,44.0,1.0,157.0,479.0,0.4876928525456595,1.0,227.0,-1.8973676882350436,1
745,Exp1,d11032021,JY6WO,reward_learning,3.0,73.0,7.0,1.0,143.0,462.0,0.3279988847778995,1.0,397.0,-0.7832367677875959,1
746,Exp1,d11032021,JY6WO,reward_learning,3.0,74.0,41.0,-1.0,0.0,440.0,0.12133610296079825,-1.0,417.0,-0.652162541852602,1
747,Exp1,d11032021,JY6WO,reward_learning,3.0,75.0,54.0,-1.0,0.0,289.0,-1.2971220813293056,-1.0,487.0,-0.1934027510801235,1
748,Exp1,d11032021,JY6WO,reward_learning,3.0,76.0,31.0,1.0,150.0,260.0,-1.5695412028154847,1.0,437.0,-0.5210883159176082,1
749,Exp1,d11032021,JY6WO,reward_learning,3.0,77.0,40.0,1.0,145.0,281.0,-1.3722721838082517,1.0,457.0,-0.3900140899826143,1
750,Exp1,d11032021,JY6WO,reward_learning,3.0,78.0,31.0,1.0,150.0,459.0,0.2998175963482948,1.0,448.0,-0.44899749165336156,1
751,Exp1,d11032021,JY6WO,reward_learning,3.0,79.0,13.0,1.0,157.0,682.0,2.3946267029489117,1.0,336.0,-1.1830131568893272,1
752,Exp1,d11032021,JY6WO,reward_learning,3.0,80.0,7.0,1.0,143.0,319.0,-1.0153091970332586,1.0,489.0,-0.1802953284866241,1
753,Exp1,d11032021,JY6WO,reward_learning,3.0,81.0,22.0,1.0,155.0,241.0,-1.7480226962029812,1.0,547.0,0.19981992672485807,1
754,Exp1,d11032021,JY6WO,reward_learning,3.0,82.0,45.0,1.0,158.0,439.0,0.11194234015093002,1.0,438.0,-0.5145346046208584,1
755,Exp1,d11032021,JY6WO,reward_learning,3.0,83.0,52.0,-1.0,0.0,390.0,-0.3483520375326137,-1.0,798.0,1.844801462209031,1
756,Exp1,d11032021,JY6WO,reward_learning,3.0,84.0,32.0,1.0,148.0,341.0,-0.8086464152161573,1.0,508.0,-0.05577481384837995,1
757,Exp1,d11032021,JY6WO,reward_learning,3.0,85.0,28.0,-1.0,0.0,458.0,0.29042383353842655,-1.0,468.0,-0.31792326571836765,1
758,Exp1,d11032021,JY6WO,reward_learning,3.0,86.0,36.0,-1.0,0.0,362.0,-0.6113773962089243,-1.0,557.0,0.265357039692355,1
759,Exp1,d11032021,JY6WO,reward_learning,3.0,87.0,58.0,-1.0,0.0,280.0,-1.3816659466181198,-1.0,437.0,-0.5210883159176082,1
760,Exp1,d11032021,JY6WO,reward_learning,3.0,88.0,27.0,-1.0,0.0,290.0,-1.2877283185194375,-1.0,518.0,0.009762299119116979,1
761,Exp1,d11032021,JY6WO,reward_learning,3.0,89.0,36.0,-1.0,0.0,321.0,-0.9965216714135221,-1.0,458.0,-0.3834603786858646,1
762,Exp1,d11032021,JY6WO,reward_learning,3.0,90.0,27.0,-1.0,0.0,300.0,-1.1937906904207551,-1.0,337.0,-1.1764594455925774,1
763,Exp1,d11032021,JY6WO,reward_learning,3.0,91.0,28.0,-1.0,0.0,371.0,-0.5268335309201102,-1.0,407.0,-0.7176996548200989,1
764,Exp1,d11032021,JY6WO,reward_learning,3.0,92.0,45.0,1.0,158.0,641.0,2.009482427744314,1.0,287.0,-1.5041450104300622,1
765,Exp1,d11032021,JY6WO,reward_learning,3.0,93.0,41.0,-1.0,0.0,501.0,0.6943556343627608,1.0,558.0,0.2719107509891047,0
766,Exp1,d11032021,JY6WO,reward_learning,3.0,94.0,19.0,-1.0,0.0,481.0,0.506480378165396,-1.0,627.0,0.7241168304648335,1
767,Exp1,d11032021,JY6WO,reward_learning,3.0,95.0,44.0,1.0,157.0,450.0,0.21527373105948064,1.0,547.0,0.19981992672485807,1
768,Exp1,d11032021,pxiIK,reward_learning,1.0,0.0,34.0,-1.0,0.0,452.0,-0.12220892678196824,-1.0,858.0,3.625310093710237,1
769,Exp1,d11032021,pxiIK,reward_learning,1.0,1.0,48.0,-1.0,0.0,344.0,-0.2033996324641063,-1.0,489.0,0.21741855460633538,1
770,Exp1,d11032021,pxiIK,reward_learning,1.0,2.0,4.0,-1.0,0.0,417.0,-0.1485207295493278,-1.0,567.0,0.9377858718152903,1
771,Exp1,d11032021,pxiIK,reward_learning,1.0,3.0,13.0,-1.0,0.0,94.0,-0.3913410808023889,-1.0,535.0,0.6422505621911037,1
772,Exp1,d11032021,pxiIK,reward_learning,1.0,4.0,13.0,-1.0,0.0,346.0,-0.20189610087740006,-1.0,528.0,0.5776022132108128,1
773,Exp1,d11032021,pxiIK,reward_learning,1.0,5.0,24.0,-1.0,0.0,311.0,-0.22820790364475962,-1.0,463.0,-0.022703884463316244,1
774,Exp1,d11032021,pxiIK,reward_learning,1.0,6.0,4.0,-1.0,0.0,293.0,-0.24173968792511596,-1.0,622.0,1.445737185231861,1
775,Exp1,d11032021,pxiIK,reward_learning,1.0,7.0,43.0,1.0,152.0,346.0,-0.20189610087740006,1.0,568.0,0.9470213502410461,1
776,Exp1,d11032021,pxiIK,reward_learning,1.0,8.0,43.0,1.0,152.0,313.0,-0.22670437205805336,1.0,432.0,-0.309003715661747,1
777,Exp1,d11032021,pxiIK,reward_learning,1.0,9.0,59.0,-1.0,0.0,281.0,-0.2507608774453535,-1.0,499.0,0.3097733388638937,1
778,Exp1,d11032021,pxiIK,reward_learning,1.0,10.0,52.0,-1.0,0.0,1110.0,0.3724529652443915,-1.0,569.0,0.9562568286668018,1
779,Exp1,d11032021,pxiIK,reward_learning,1.0,11.0,29.0,1.0,142.0,568.0,-0.03500409475300513,1.0,429.0,-0.3367101509390145,1
780,Exp1,d11032021,pxiIK,reward_learning,1.0,12.0,17.0,1.0,147.0,12.0,-0.45298587585734557,1.0,646.0,1.667388667450001,1
781,Exp1,d11032021,pxiIK,reward_learning,1.0,13.0,34.0,-1.0,0.0,384.0,-0.17332900072998111,-1.0,525.0,0.5498957779335453,1
782,Exp1,d11032021,pxiIK,reward_learning,1.0,14.0,52.0,-1.0,0.0,348.0,-0.2003925692906938,-1.0,429.0,-0.3367101509390145,1
783,Exp1,d11032021,pxiIK,reward_learning,1.0,15.0,42.0,1.0,150.0,601.0,-0.010195823572351829,1.0,475.0,0.08812185664575373,1
784,Exp1,d11032021,pxiIK,reward_learning,1.0,16.0,48.0,-1.0,0.0,400.0,-0.16130074803633102,-1.0,505.0,0.36518620941842866,1
785,Exp1,d11032021,pxiIK,reward_learning,1.0,17.0,45.0,-1.0,0.0,343.0,-0.20415139825745945,-1.0,481.0,0.14353472720028873,1
786,Exp1,d11032021,pxiIK,reward_learning,1.0,18.0,17.0,1.0,147.0,601.0,-0.010195823572351829,1.0,429.0,-0.3367101509390145,1
787,Exp1,d11032021,pxiIK,reward_learning,1.0,19.0,54.0,1.0,158.0,412.0,-0.15227955851609346,1.0,494.0,0.26359594673511455,1
788,Exp1,d11032021,pxiIK,reward_learning,1.0,20.0,42.0,1.0,150.0,315.0,-0.22520084047134709,1.0,515.0,0.457540993675987,1
789,Exp1,d11032021,pxiIK,reward_learning,1.0,21.0,7.0,1.0,146.0,672.0,0.04317954775572042,1.0,464.0,-0.013468406037560412,1
790,Exp1,d11032021,pxiIK,reward_learning,1.0,22.0,54.0,1.0,158.0,447.0,-0.1259677557487339,1.0,384.0,-0.7523066800980269,1
791,Exp1,d11032021,pxiIK,reward_learning,1.0,23.0,36.0,1.0,148.0,476.0,-0.10416654774149312,1.0,374.0,-0.8446614643555852,1
792,Exp1,d11032021,pxiIK,reward_learning,1.0,24.0,45.0,-1.0,0.0,336.0,-0.20941375881093136,-1.0,609.0,1.3256759656970352,1
793,Exp1,d11032021,pxiIK,reward_learning,1.0,25.0,19.0,1.0,151.0,510.0,-0.07860651076748669,1.0,452.0,-0.1242941471466304,1
794,Exp1,d11032021,pxiIK,reward_learning,1.0,26.0,19.0,1.0,151.0,443.0,-0.1289748189221464,1.0,294.0,-1.5834997384160518,1
795,Exp1,d11032021,pxiIK,reward_learning,1.0,27.0,7.0,1.0,146.0,580.0,-0.025982905232767566,1.0,449.0,-0.15200058242389788,1
796,Exp1,d11032021,pxiIK,reward_learning,1.0,28.0,29.0,1.0,142.0,334.0,-0.21091729039763762,1.0,412.0,-0.49371328417686366,1
797,Exp1,d11032021,pxiIK,reward_learning,1.0,29.0,59.0,-1.0,0.0,455.0,-0.11995362940190885,-1.0,507.0,0.38365716626994034,1
798,Exp1,d11032021,pxiIK,reward_learning,1.0,30.0,24.0,-1.0,0.0,424.0,-0.1432583689958559,-1.0,549.0,0.7715472601516853,1
799,Exp1,d11032021,pxiIK,reward_learning,1.0,31.0,36.0,1.0,148.0,358.0,-0.19287491135716248,1.0,345.0,-1.1124903387025042,1
800,Exp1,d11032021,pxiIK,reward_learning,2.0,32.0,45.0,-1.0,0.0,446.0,-0.12671952154208702,-1.0,402.0,-0.5860680684344219,1
801,Exp1,d11032021,pxiIK,reward_learning,2.0,33.0,43.0,1.0,152.0,1030.0,0.31231170177614104,1.0,392.0,-0.6784228526919803,1
802,Exp1,d11032021,pxiIK,reward_learning,2.0,34.0,36.0,1.0,148.0,310.0,-0.22895966943811275,1.0,401.0,-0.5953035468601778,1
803,Exp1,d11032021,pxiIK,reward_learning,2.0,35.0,59.0,-1.0,0.0,511.0,-0.07785474497413356,-1.0,375.0,-0.8354259859298294,1
804,Exp1,d11032021,pxiIK,reward_learning,2.0,36.0,43.0,1.0,152.0,396.0,-0.16430781120974353,1.0,443.0,-0.20741345297843286,1
805,Exp1,d11032021,pxiIK,reward_learning,2.0,37.0,17.0,1.0,147.0,381.0,-0.1755842981100405,1.0,481.0,0.14353472720028873,1
806,Exp1,d11032021,pxiIK,reward_learning,2.0,38.0,4.0,-1.0,0.0,424.0,-0.1432583689958559,-1.0,602.0,1.2610276167167442,1
807,Exp1,d11032021,pxiIK,reward_learning,2.0,39.0,52.0,-1.0,0.0,317.0,-0.22369730888464084,-1.0,475.0,0.08812185664575373,1
808,Exp1,d11032021,pxiIK,reward_learning,2.0,40.0,24.0,-1.0,0.0,321.0,-0.2206902457112283,-1.0,477.0,0.10659281349726539,1
809,Exp1,d11032021,pxiIK,reward_learning,2.0,41.0,34.0,-1.0,0.0,457.0,-0.11845009781520259,-1.0,694.0,2.1106916318862807,1
810,Exp1,d11032021,pxiIK,reward_learning,2.0,42.0,42.0,1.0,150.0,470.0,-0.1086771425016119,1.0,355.0,-1.020135554444946,1
811,Exp1,d11032021,pxiIK,reward_learning,2.0,43.0,34.0,-1.0,0.0,625.0,0.007846555468123297,-1.0,546.0,0.7438408248744177,1
812,Exp1,d11032021,pxiIK,reward_learning,2.0,44.0,13.0,-1.0,0.0,466.0,-0.11168420567502442,-1.0,547.0,0.7530763033001736,1
813,Exp1,d11032021,pxiIK,reward_learning,2.0,45.0,54.0,1.0,158.0,378.0,-0.1778395954900999,1.0,376.0,-0.8261905075040735,1
814,Exp1,d11032021,pxiIK,reward_learning,2.0,46.0,19.0,1.0,151.0,381.0,-0.1755842981100405,1.0,607.0,1.3072050088455234,1
815,Exp1,d11032021,pxiIK,reward_learning,2.0,47.0,59.0,-1.0,0.0,346.0,-0.20189610087740006,-1.0,432.0,-0.309003715661747,1
