,Exp,group,PID,phase,trial,condition,stimulus_id,painting,rating,is_chosen,outcome,is_novel,stim_type,outcome_eval_gain,outcome_eval_acc,outcome_eval_rt,zscored_outcome_eval_rt,outcome_eval_confidence,outcome_eval_confidence_rt,zscored_outcome_eval_confidence_rt
0,Exp1,d11032021,ZGrrY,outcome_evaluation,0.0,1.0,32.0,Macka1.jpg,40.0,1.0,-1.0,0.0,chosen,0.0,1.0,3137.0,2.6473410601185274,5.0,3442.0,3.496234263458203
1,Exp1,d11032021,ZGrrY,outcome_evaluation,1.0,0.0,3.0,Fogeg1.jpg,65.0,1.0,1.0,0.0,chosen,1.0,1.0,1230.0,-0.7953125602885998,6.0,1930.0,-0.026384695576100296
2,Exp1,d11032021,ZGrrY,outcome_evaluation,2.0,0.0,56.0,Luisc1.jpg,36.0,1.0,1.0,0.0,chosen,1.0,1.0,1148.0,-0.94334486069415,6.0,1973.0,0.07379560550754723
3,Exp1,d11032021,ZGrrY,outcome_evaluation,3.0,0.0,15.0,Clia1n.jpg,34.0,0.0,1.0,0.0,unchosen,1.0,1.0,2664.0,1.7934474248523653,3.0,2257.0,0.7354515475483819
4,Exp1,d11032021,ZGrrY,outcome_evaluation,4.0,1.0,1.0,Lewia1.jpg,65.0,1.0,1.0,0.0,chosen,1.0,1.0,1068.0,-1.0877666171873699,6.0,2175.0,0.5444100431563099
5,Exp1,d11032021,ZGrrY,outcome_evaluation,5.0,0.0,35.0,Wdeka1.jpg,65.0,1.0,1.0,0.0,chosen,1.0,1.0,1036.0,-1.1455353197846578,6.0,1665.0,-0.6437749231846257
6,Exp1,d11032021,ZGrrY,outcome_evaluation,6.0,0.0,47.0,Kupkd1.jpg,31.0,0.0,1.0,0.0,unchosen,0.0,0.0,2379.0,1.2789449173452698,2.0,2014.0,0.16931635770358322
7,Exp1,d11032021,ZGrrY,outcome_evaluation,7.0,1.0,37.0,Mondb1.jpg,58.0,,1.0,1.0,novel,0.0,0.0,2516.0,1.5262671753399086,3.0,3467.0,3.554478624553347
8,Exp1,d11032021,ZGrrY,outcome_evaluation,8.0,1.0,36.0,Gorkf1.jpg,35.0,0.0,1.0,0.0,unchosen,1.0,1.0,2048.0,0.6813998998545728,2.0,2054.0,0.26250733545581345
9,Exp1,d11032021,ZGrrY,outcome_evaluation,9.0,1.0,17.0,Picab1.jpg,65.0,1.0,-1.0,0.0,chosen,0.0,1.0,1770.0,0.17953429604063395,6.0,1803.0,-0.3222660499394313
10,Exp1,d11032021,ZGrrY,outcome_evaluation,10.0,1.0,55.0,Lewic1.jpg,59.0,,-1.0,1.0,novel,1.0,0.0,1850.0,0.3239560525338538,3.0,1808.0,-0.31061717772040254
11,Exp1,d11032021,ZGrrY,outcome_evaluation,11.0,1.0,59.0,Kraa1n.jpg,38.0,,-1.0,1.0,novel,1.0,0.0,2061.0,0.704868435284721,2.0,1803.0,-0.3222660499394313
12,Exp1,d11032021,ZGrrY,outcome_evaluation,12.0,1.0,27.0,Vinb1n.jpg,58.0,1.0,1.0,0.0,chosen,1.0,1.0,956.0,-1.2899570762778776,6.0,1712.0,-0.5342755243257551
13,Exp1,d11032021,ZGrrY,outcome_evaluation,13.0,1.0,48.0,Picb1n.jpg,66.0,1.0,1.0,0.0,chosen,1.0,1.0,1539.0,-0.23748352583353824,6.0,1691.0,-0.5832007876456761
14,Exp1,d11032021,ZGrrY,outcome_evaluation,14.0,1.0,31.0,Maca1n.jpg,39.0,1.0,-1.0,0.0,chosen,0.0,1.0,1251.0,-0.7574018492091296,6.0,2464.0,1.2177148574161736
15,Exp1,d11032021,ZGrrY,outcome_evaluation,15.0,0.0,5.0,Kupb1n.jpg,62.0,1.0,-1.0,0.0,chosen,0.0,1.0,1573.0,-0.17610427932391984,5.0,1858.0,-0.19412845553011474
16,Exp1,d11032021,ZGrrY,outcome_evaluation,16.0,1.0,4.0,Mackb1.jpg,41.0,,1.0,1.0,novel,0.0,0.0,2354.0,1.2338131184411385,2.0,2225.0,0.6608987653465977
17,Exp1,d11032021,ZGrrY,outcome_evaluation,17.0,0.0,57.0,Lewc1n.jpg,59.0,1.0,-1.0,0.0,chosen,0.0,1.0,1162.0,-0.9180710533078366,6.0,1762.0,-0.4177868021354673
18,Exp1,d11032021,ZGrrY,outcome_evaluation,18.0,0.0,51.0,Gora1n.jpg,25.0,0.0,-1.0,0.0,unchosen,0.0,1.0,1912.0,0.4358829138160991,2.0,2339.0,0.926493051940454
19,Exp1,d11032021,ZGrrY,outcome_evaluation,19.0,1.0,10.0,Stera1.jpg,62.0,0.0,1.0,0.0,unchosen,1.0,1.0,1900.0,0.41421965034211616,2.0,1792.0,-0.34789356882129463
20,Exp1,d11032021,ZGrrY,outcome_evaluation,20.0,1.0,53.0,Gorka1.jpg,54.0,0.0,-1.0,0.0,unchosen,0.0,1.0,1420.0,-0.4523108886172027,2.0,1690.0,-0.5855305620894817
21,Exp1,d11032021,ZGrrY,outcome_evaluation,21.0,0.0,21.0,Lewb1n.jpg,38.0,0.0,1.0,0.0,unchosen,1.0,1.0,1434.0,-0.42703708123088924,5.0,1677.0,-0.6158176298589566
22,Exp1,d11032021,ZGrrY,outcome_evaluation,22.0,1.0,26.0,Clib1n.jpg,64.0,,1.0,1.0,novel,1.0,1.0,1630.0,-0.0732037778225007,2.0,1950.0,0.02021079330001483
23,Exp1,d11032021,ZGrrY,outcome_evaluation,23.0,0.0,45.0,Klia1n.jpg,42.0,0.0,-1.0,0.0,unchosen,0.0,1.0,1405.0,-0.4793899679596814,2.0,2012.0,0.16465680881597172
24,Exp1,d11032021,ZGrrY,outcome_evaluation,24.0,0.0,2.0,Dekob1.jpg,36.0,0.0,1.0,0.0,unchosen,1.0,1.0,1344.0,-0.5895115572857615,3.0,1987.0,0.10641244772082781
25,Exp1,d11032021,ZGrrY,outcome_evaluation,25.0,1.0,14.0,Kupkb1.jpg,29.0,0.0,-1.0,0.0,unchosen,0.0,1.0,1154.0,-0.9325132289571586,2.0,1625.0,-0.736965900936856
26,Exp1,d11032021,ZGrrY,outcome_evaluation,26.0,0.0,11.0,Wdekb1.jpg,22.0,0.0,-1.0,0.0,unchosen,0.0,1.0,1082.0,-1.0624928098010564,3.0,1704.0,-0.5529137198762012
27,Exp1,d11032021,ZGrrY,outcome_evaluation,27.0,1.0,49.0,Hinda1.jpg,45.0,,1.0,1.0,novel,1.0,1.0,3112.0,2.602209261214396,2.0,1690.0,-0.5855305620894817
28,Exp1,d11032021,ZGrrY,outcome_evaluation,28.0,1.0,0.0,Gorkc1.jpg,19.0,0.0,-1.0,0.0,unchosen,1.0,0.0,1387.0,-0.5118848631706558,2.0,1682.0,-0.6041687576399278
29,Exp1,d11032021,ZGrrY,outcome_evaluation,29.0,0.0,33.0,Kupc1n.jpg,57.0,0.0,-1.0,0.0,unchosen,1.0,0.0,1439.0,-0.418010721450063,3.0,1506.0,-1.0142090597497408
30,Exp1,d11032021,ZGrrY,outcome_evaluation,30.0,1.0,34.0,Monb1n.jpg,35.0,,-1.0,1.0,novel,0.0,1.0,2046.0,0.6777893559422423,2.0,2286.0,0.8030150064187489
31,Exp1,d11032021,ZGrrY,outcome_evaluation,31.0,1.0,58.0,Mackc1.jpg,28.0,1.0,1.0,0.0,chosen,1.0,1.0,1094.0,-1.0408295463270734,6.0,1432.0,-1.186612368591367
32,Exp1,d11032021,ZGrrY,outcome_evaluation,32.0,0.0,39.0,Dekb1n.jpg,36.0,1.0,-1.0,0.0,chosen,0.0,1.0,2071.0,0.7229211548463735,6.0,1672.0,-0.6274665020779854
33,Exp1,d11032021,ZGrrY,outcome_evaluation,33.0,1.0,40.0,Krab1n.jpg,38.0,,-1.0,1.0,novel,1.0,0.0,1532.0,-0.250120429526695,2.0,2075.0,0.31143259877573437
34,Exp1,d11032021,ZGrrY,outcome_evaluation,34.0,0.0,12.0,Kupkc1.jpg,17.0,1.0,-1.0,0.0,chosen,0.0,1.0,1626.0,-0.0804248656471617,6.0,1520.0,-0.9815922175364603
35,Exp1,d11032021,ZGrrY,outcome_evaluation,35.0,1.0,22.0,Macb1n.jpg,59.0,0.0,1.0,0.0,unchosen,1.0,1.0,1495.0,-0.31691549190480917,3.0,2105.0,0.38132583208990706
36,Exp1,d11032021,ZGrrY,outcome_evaluation,36.0,0.0,23.0,Lewib1.jpg,35.0,1.0,1.0,0.0,chosen,1.0,1.0,1074.0,-1.0769349854503785,6.0,1571.0,-0.8627737209023668
37,Exp1,d11032021,ZGrrY,outcome_evaluation,37.0,1.0,16.0,Lewa1n.jpg,32.0,0.0,1.0,0.0,unchosen,1.0,1.0,1464.0,-0.3728789225459318,5.0,1550.0,-0.9116989842222877
38,Exp1,d11032021,ZGrrY,outcome_evaluation,38.0,1.0,18.0,Krasb1.jpg,64.0,1.0,-1.0,0.0,chosen,1.0,0.0,2103.0,0.7806898574436615,4.0,1920.0,-0.04968244001415786
39,Exp1,d11032021,ZGrrY,outcome_evaluation,39.0,1.0,50.0,Gorke1.jpg,37.0,0.0,-1.0,0.0,unchosen,0.0,1.0,1356.0,-0.5678482938117786,2.0,1765.0,-0.41079747880405004
40,Exp1,d11042021,l6WpQ,outcome_evaluation,0.0,1.0,31.0,Maca1n.jpg,85.0,,1.0,1.0,novel,1.0,1.0,3748.0,2.8310269555309815,1.0,3929.0,3.5753700732412086
41,Exp1,d11042021,l6WpQ,outcome_evaluation,1.0,0.0,55.0,Lewic1.jpg,85.0,1.0,-1.0,0.0,chosen,0.0,1.0,3092.0,1.9755899758772166,5.0,2683.0,1.4642629110862033
42,Exp1,d11042021,l6WpQ,outcome_evaluation,2.0,1.0,17.0,Picab1.jpg,93.0,,1.0,1.0,novel,1.0,1.0,3184.0,2.0955597961945127,1.0,2501.0,1.1558989435804161
43,Exp1,d11042021,l6WpQ,outcome_evaluation,3.0,0.0,0.0,Gorkc1.jpg,95.0,1.0,1.0,0.0,chosen,1.0,1.0,1929.0,0.45901496469226416,3.0,1976.0,0.26638749885218344
44,Exp1,d11042021,l6WpQ,outcome_evaluation,4.0,1.0,14.0,Kupkb1.jpg,76.0,0.0,1.0,0.0,unchosen,0.0,0.0,1078.0,-0.6507058732427268,2.0,2237.0,0.7086017599456477
45,Exp1,d11042021,l6WpQ,outcome_evaluation,5.0,0.0,43.0,Picac1.jpg,94.0,1.0,1.0,0.0,chosen,0.0,0.0,1795.0,0.28427631336055,4.0,2172.0,0.5984717715507236
46,Exp1,d11042021,l6WpQ,outcome_evaluation,6.0,1.0,12.0,Kupkc1.jpg,31.0,0.0,-1.0,0.0,unchosen,0.0,1.0,1948.0,0.48379134062735796,3.0,1503.0,-0.5350199551601099
47,Exp1,d11042021,l6WpQ,outcome_evaluation,7.0,0.0,7.0,Pica1n.jpg,82.0,0.0,1.0,0.0,unchosen,1.0,1.0,1967.0,0.5085677165624518,3.0,1280.0,-0.9128505307303878
48,Exp1,d11042021,l6WpQ,outcome_evaluation,8.0,0.0,6.0,Wdekc1.jpg,84.0,0.0,-1.0,0.0,unchosen,1.0,0.0,1378.0,-0.2594999374254562,2.0,2547.0,1.233837089213747
49,Exp1,d11042021,l6WpQ,outcome_evaluation,9.0,1.0,46.0,Deka1n.jpg,85.0,0.0,1.0,0.0,unchosen,0.0,0.0,1229.0,-0.4537988855480339,3.0,1274.0,-0.9230163758129962
50,Exp1,d11042021,l6WpQ,outcome_evaluation,10.0,1.0,1.0,Lewia1.jpg,94.0,1.0,-1.0,0.0,chosen,0.0,1.0,2151.0,0.7485073571970444,2.0,1881.0,0.10542828504421752
51,Exp1,d11042021,l6WpQ,outcome_evaluation,11.0,1.0,10.0,Stera1.jpg,95.0,1.0,1.0,0.0,chosen,1.0,1.0,826.0,-0.979318859329234,2.0,1329.0,-0.8298294625557527
52,Exp1,d11042021,l6WpQ,outcome_evaluation,12.0,0.0,30.0,Lasse1.jpg,92.0,1.0,1.0,0.0,chosen,1.0,1.0,893.0,-0.8919495336633769,6.0,1970.0,0.25622165376957506
53,Exp1,d11042021,l6WpQ,outcome_evaluation,13.0,1.0,27.0,Vinb1n.jpg,90.0,,-1.0,1.0,novel,1.0,0.0,2093.0,0.6728742096057054,2.0,1323.0,-0.8399953076383612
54,Exp1,d11042021,l6WpQ,outcome_evaluation,14.0,0.0,50.0,Gorke1.jpg,79.0,0.0,-1.0,0.0,unchosen,1.0,0.0,1828.0,0.32730896630044976,2.0,1382.0,-0.7400311643260454
55,Exp1,d11042021,l6WpQ,outcome_evaluation,15.0,0.0,40.0,Krab1n.jpg,95.0,1.0,-1.0,0.0,chosen,0.0,1.0,1306.0,-0.3533893620216011,3.0,1313.0,-0.8569383827760417
56,Exp1,d11042021,l6WpQ,outcome_evaluation,16.0,1.0,22.0,Macb1n.jpg,86.0,,1.0,1.0,novel,1.0,1.0,1236.0,-0.4446707470456309,2.0,1290.0,-0.8959074555927072
57,Exp1,d11042021,l6WpQ,outcome_evaluation,17.0,0.0,39.0,Dekb1n.jpg,84.0,0.0,1.0,0.0,unchosen,1.0,1.0,1301.0,-0.35990946095188897,1.0,2252.0,0.7340163726521686
58,Exp1,d11042021,l6WpQ,outcome_evaluation,18.0,0.0,25.0,Clifa1.jpg,33.0,0.0,1.0,0.0,unchosen,0.0,0.0,1386.0,-0.24906777913699563,1.0,1513.0,-0.5180768800224294
59,Exp1,d11042021,l6WpQ,outcome_evaluation,19.0,1.0,29.0,Clifb1.jpg,38.0,0.0,-1.0,0.0,unchosen,1.0,0.0,1260.0,-0.41337427218024925,2.0,1636.0,-0.3096770558289577
60,Exp1,d11042021,l6WpQ,outcome_evaluation,20.0,0.0,51.0,Gora1n.jpg,91.0,0.0,1.0,0.0,unchosen,0.0,0.0,1024.0,-0.7211229416898355,1.0,1583.0,-0.399475354058665
61,Exp1,d11042021,l6WpQ,outcome_evaluation,21.0,1.0,23.0,Lewib1.jpg,88.0,1.0,-1.0,0.0,chosen,0.0,1.0,1577.0,0.0,3.0,2791.0,1.6472481225731541
62,Exp1,d11042021,l6WpQ,outcome_evaluation,22.0,0.0,32.0,Macka1.jpg,89.0,1.0,1.0,0.0,chosen,1.0,1.0,994.0,-0.7602435352715625,6.0,2222.0,0.6831871472391267
63,Exp1,d11042021,l6WpQ,outcome_evaluation,23.0,1.0,19.0,Macc1n.jpg,94.0,1.0,-1.0,0.0,chosen,0.0,1.0,1191.0,-0.5033516374182215,6.0,1656.0,-0.2757909055535965
64,Exp1,d11042021,l6WpQ,outcome_evaluation,24.0,1.0,36.0,Gorkf1.jpg,80.0,1.0,-1.0,0.0,chosen,0.0,1.0,1215.0,-0.47205516255283986,2.0,1392.0,-0.7230880891883649
65,Exp1,d11042021,l6WpQ,outcome_evaluation,25.0,0.0,42.0,Picc1n.jpg,78.0,0.0,-1.0,0.0,unchosen,0.0,1.0,1241.0,-0.4381506481153431,4.0,1732.0,-0.14702353450722375
66,Exp1,d11042021,l6WpQ,outcome_evaluation,26.0,0.0,47.0,Kupkd1.jpg,86.0,1.0,-1.0,0.0,chosen,0.0,1.0,957.0,-0.8084922673556926,2.0,1636.0,-0.3096770558289577
67,Exp1,d11042021,l6WpQ,outcome_evaluation,27.0,1.0,8.0,Klina1.jpg,95.0,,-1.0,1.0,novel,0.0,1.0,1546.0,-0.04042461336778463,3.0,1140.0,-1.1500535826579166
68,Exp1,d11042021,l6WpQ,outcome_evaluation,28.0,1.0,56.0,Luisc1.jpg,83.0,1.0,1.0,0.0,chosen,1.0,1.0,4118.0,3.313514276372282,3.0,1903.0,0.1427030503471149
69,Exp1,d11042021,l6WpQ,outcome_evaluation,29.0,1.0,28.0,Krasa1.jpg,89.0,,-1.0,1.0,novel,0.0,1.0,979.0,-0.7798038320624261,2.0,1775.0,-0.07416831141519707
70,Exp1,d11042021,l6WpQ,outcome_evaluation,30.0,1.0,53.0,Gorka1.jpg,67.0,,1.0,1.0,novel,0.0,0.0,1062.0,-0.6715701898196479,2.0,1664.0,-0.262236445443452
71,Exp1,d11042021,l6WpQ,outcome_evaluation,31.0,1.0,24.0,Dekoa1.jpg,74.0,0.0,-1.0,0.0,unchosen,1.0,0.0,1264.0,-0.40815819303601897,2.0,1203.0,-1.0433122092905287
72,Exp1,d11042021,l6WpQ,outcome_evaluation,32.0,1.0,26.0,Clib1n.jpg,73.0,0.0,-1.0,0.0,unchosen,0.0,1.0,853.0,-0.9441103251056797,3.0,1760.0,-0.099582924121718
73,Exp1,d11042021,l6WpQ,outcome_evaluation,33.0,1.0,34.0,Monb1n.jpg,74.0,0.0,1.0,0.0,unchosen,0.0,0.0,654.0,-1.2036102625311358,1.0,1479.0,-0.5756833354905434
74,Exp1,d11042021,l6WpQ,outcome_evaluation,34.0,0.0,45.0,Klia1n.jpg,70.0,0.0,-1.0,0.0,unchosen,0.0,1.0,1239.0,-0.4407586876874582,3.0,2048.0,0.3883776398434839
75,Exp1,d11042021,l6WpQ,outcome_evaluation,35.0,1.0,20.0,Gorc1n.jpg,87.0,1.0,1.0,0.0,chosen,1.0,1.0,1656.0,0.10301756309854793,2.0,2294.0,0.8051772882304271
76,Exp1,d11042021,l6WpQ,outcome_evaluation,36.0,1.0,9.0,Lassc1.jpg,80.0,0.0,1.0,0.0,unchosen,0.0,0.0,1612.0,0.045640692512014906,1.0,1533.0,-0.4841907297470681
77,Exp1,d11042021,l6WpQ,outcome_evaluation,37.0,1.0,57.0,Lewc1n.jpg,83.0,1.0,1.0,0.0,chosen,1.0,1.0,1778.0,0.2621079769975713,3.0,1091.0,-1.2330746508325516
78,Exp1,d11042021,l6WpQ,outcome_evaluation,38.0,1.0,16.0,Lewa1n.jpg,84.0,,-1.0,1.0,novel,1.0,0.0,1348.0,-0.2986205310071832,3.0,1061.0,-1.2839038762455934
79,Exp1,d11042021,l6WpQ,outcome_evaluation,39.0,0.0,38.0,Lasc1n.jpg,94.0,1.0,-1.0,0.0,chosen,0.0,1.0,1144.0,-0.5646405673629272,5.0,2797.0,1.6574139676557624
80,Exp1,d11032021,GCq3m,outcome_evaluation,0.0,1.0,28.0,Krasa1.jpg,8.0,0.0,-1.0,0.0,unchosen,0.0,1.0,1286.0,-0.4224689549365577,2.0,3560.0,1.2711671432849276
81,Exp1,d11032021,GCq3m,outcome_evaluation,1.0,1.0,12.0,Kupkc1.jpg,10.0,0.0,-1.0,0.0,unchosen,1.0,0.0,1596.0,0.7597957801601046,4.0,2620.0,-0.36511784772887856
82,Exp1,d11032021,GCq3m,outcome_evaluation,2.0,1.0,23.0,Lewib1.jpg,6.0,,-1.0,1.0,novel,0.0,1.0,1319.0,-0.296614967006913,5.0,5153.0,4.044147984439175
83,Exp1,d11032021,GCq3m,outcome_evaluation,3.0,0.0,51.0,Gora1n.jpg,6.0,0.0,1.0,0.0,unchosen,0.0,0.0,1342.0,-0.2088985511771606,5.0,2538.0,-0.5078576022641255
84,Exp1,d11032021,GCq3m,outcome_evaluation,4.0,0.0,3.0,Fogeg1.jpg,18.0,1.0,1.0,0.0,chosen,1.0,1.0,1041.0,-1.3568394713839198,6.0,2536.0,-0.5113390596918144
85,Exp1,d11032021,GCq3m,outcome_evaluation,5.0,1.0,0.0,Gorkc1.jpg,7.0,,1.0,1.0,novel,1.0,1.0,1851.0,1.732303868707359,4.0,2507.0,-0.5618201923933042
86,Exp1,d11032021,GCq3m,outcome_evaluation,6.0,0.0,35.0,Wdeka1.jpg,5.0,1.0,-1.0,0.0,chosen,1.0,0.0,981.0,-1.5856649039832738,6.0,2523.0,-0.5339685329717926
87,Exp1,d11032021,GCq3m,outcome_evaluation,7.0,0.0,14.0,Kupkb1.jpg,13.0,1.0,1.0,0.0,chosen,1.0,1.0,1185.0,-0.8076584331454703,6.0,2428.0,-0.6993377607870177
88,Exp1,d11032021,GCq3m,outcome_evaluation,8.0,0.0,46.0,Deka1n.jpg,19.0,1.0,1.0,0.0,chosen,1.0,1.0,1062.0,-1.276750569974146,6.0,3455.0,1.0883906283312577
89,Exp1,d11032021,GCq3m,outcome_evaluation,9.0,1.0,13.0,Picak1.jpg,7.0,0.0,-1.0,0.0,unchosen,0.0,1.0,1182.0,-0.8190997047754379,3.0,4126.0,2.2564195953209003
90,Exp1,d11032021,GCq3m,outcome_evaluation,10.0,0.0,4.0,Mackb1.jpg,5.0,0.0,-1.0,0.0,unchosen,1.0,0.0,1523.0,0.48139150383089063,4.0,3118.0,0.5017650517656698
91,Exp1,d11032021,GCq3m,outcome_evaluation,11.0,1.0,27.0,Vinb1n.jpg,6.0,1.0,-1.0,0.0,chosen,0.0,1.0,1356.0,-0.15550595023731134,3.0,2341.0,-0.850781158891487
92,Exp1,d11032021,GCq3m,outcome_evaluation,12.0,0.0,25.0,Clifa1.jpg,8.0,0.0,1.0,0.0,unchosen,0.0,0.0,1249.0,-0.5635779717061593,2.0,2493.0,-0.5861903943871268
93,Exp1,d11032021,GCq3m,outcome_evaluation,13.0,1.0,56.0,Luisc1.jpg,14.0,1.0,-1.0,0.0,chosen,0.0,1.0,2254.0,3.26924802433302,6.0,3330.0,0.8707995391006984
94,Exp1,d11032021,GCq3m,outcome_evaluation,14.0,0.0,41.0,Vincb1.jpg,10.0,1.0,-1.0,0.0,chosen,1.0,0.0,1501.0,0.3974888452111275,6.0,3109.0,0.4860984933410695
95,Exp1,d11032021,GCq3m,outcome_evaluation,15.0,1.0,32.0,Macka1.jpg,12.0,,-1.0,1.0,novel,1.0,0.0,1535.0,0.5271565903507615,5.0,2935.0,0.18321169713213095
96,Exp1,d11032021,GCq3m,outcome_evaluation,16.0,1.0,42.0,Picc1n.jpg,5.0,0.0,-1.0,0.0,unchosen,1.0,0.0,1285.0,-0.4262827121465469,4.0,2493.0,-0.5861903943871268
97,Exp1,d11032021,GCq3m,outcome_evaluation,17.0,1.0,33.0,Kupc1n.jpg,8.0,1.0,-1.0,0.0,chosen,1.0,0.0,1222.0,-0.6665494163758686,5.0,2159.0,-1.1675937848111813
98,Exp1,d11032021,GCq3m,outcome_evaluation,18.0,0.0,34.0,Monb1n.jpg,11.0,1.0,1.0,0.0,chosen,1.0,1.0,1880.0,1.842902827797047,5.0,3135.0,0.5313574399010259
99,Exp1,d11032021,GCq3m,outcome_evaluation,19.0,1.0,59.0,Kraa1n.jpg,12.0,1.0,-1.0,0.0,chosen,1.0,0.0,1272.0,-0.47586155587640694,5.0,2557.0,-0.4747837567010804
100,Exp1,d11032021,GCq3m,outcome_evaluation,20.0,1.0,22.0,Macb1n.jpg,10.0,0.0,1.0,0.0,unchosen,0.0,0.0,1255.0,-0.5406954284462239,3.0,2587.0,-0.42256189528574617
101,Exp1,d11032021,GCq3m,outcome_evaluation,21.0,1.0,17.0,Picab1.jpg,14.0,1.0,1.0,0.0,chosen,1.0,1.0,1311.0,-0.32712502468682686,5.0,2740.0,-0.1562304020675416
102,Exp1,d11032021,GCq3m,outcome_evaluation,22.0,0.0,53.0,Gorka1.jpg,8.0,0.0,-1.0,0.0,unchosen,0.0,1.0,1271.0,-0.47967531308639616,3.0,2885.0,0.09617526143990722
103,Exp1,d11032021,GCq3m,outcome_evaluation,23.0,1.0,10.0,Stera1.jpg,8.0,1.0,1.0,0.0,chosen,1.0,1.0,1252.0,-0.5521367000761916,5.0,2528.0,-0.5252648894025702
104,Exp1,d11032021,GCq3m,outcome_evaluation,24.0,1.0,11.0,Wdekb1.jpg,10.0,0.0,1.0,0.0,unchosen,0.0,0.0,1385.0,-0.04490699114762357,3.0,2425.0,-0.7045599469285511
105,Exp1,d11032021,GCq3m,outcome_evaluation,25.0,0.0,47.0,Kupkd1.jpg,12.0,0.0,-1.0,0.0,unchosen,1.0,0.0,1573.0,0.6720793643303523,5.0,2389.0,-0.7672261806269521
106,Exp1,d11032021,GCq3m,outcome_evaluation,26.0,0.0,48.0,Picb1n.jpg,10.0,0.0,1.0,0.0,unchosen,1.0,1.0,1291.0,-0.4034001688866115,5.0,2700.0,-0.22585955062132057
107,Exp1,d11032021,GCq3m,outcome_evaluation,27.0,1.0,45.0,Klia1n.jpg,11.0,,1.0,1.0,novel,0.0,0.0,1626.0,0.8742084964597817,4.0,3204.0,0.6514677211562946
108,Exp1,d11032021,GCq3m,outcome_evaluation,28.0,0.0,1.0,Lewia1.jpg,9.0,1.0,-1.0,0.0,chosen,0.0,1.0,1506.0,0.41655763126107365,5.0,2277.0,-0.9621877965775333
109,Exp1,d11032021,GCq3m,outcome_evaluation,29.0,1.0,44.0,Lassf1.jpg,11.0,,1.0,1.0,novel,1.0,1.0,1121.0,-1.0517388945847812,5.0,2749.0,-0.14056384364294133
110,Exp1,d11032021,GCq3m,outcome_evaluation,30.0,1.0,43.0,Picac1.jpg,14.0,0.0,1.0,0.0,unchosen,0.0,0.0,1632.0,0.897091039719717,4.0,2621.0,-0.36337711901503406
111,Exp1,d11032021,GCq3m,outcome_evaluation,31.0,1.0,21.0,Lewb1n.jpg,8.0,0.0,1.0,0.0,unchosen,0.0,0.0,1265.0,-0.5025578563463315,3.0,2858.0,0.04917558616610641
112,Exp1,d11032021,GCq3m,outcome_evaluation,32.0,1.0,26.0,Clib1n.jpg,12.0,1.0,1.0,0.0,chosen,1.0,1.0,1182.0,-0.8190997047754379,5.0,3940.0,1.9326440545458279
113,Exp1,d11032021,GCq3m,outcome_evaluation,33.0,1.0,8.0,Klina1.jpg,9.0,,-1.0,1.0,novel,0.0,1.0,1364.0,-0.12499589255739747,4.0,2484.0,-0.6018569528117271
114,Exp1,d11032021,GCq3m,outcome_evaluation,34.0,1.0,29.0,Clifb1.jpg,14.0,,-1.0,1.0,novel,0.0,1.0,1407.0,0.03899566747213956,3.0,2617.0,-0.370340033870412
115,Exp1,d11032021,GCq3m,outcome_evaluation,35.0,0.0,40.0,Krab1n.jpg,5.0,0.0,1.0,0.0,unchosen,0.0,0.0,1472.0,0.28688988612143973,4.0,2755.0,-0.13011947135987448
116,Exp1,d11032021,GCq3m,outcome_evaluation,36.0,1.0,50.0,Gorke1.jpg,8.0,1.0,1.0,0.0,chosen,1.0,1.0,1637.0,0.9161598257696633,5.0,2558.0,-0.47304302798723596
117,Exp1,d11032021,GCq3m,outcome_evaluation,37.0,0.0,5.0,Kupb1n.jpg,15.0,1.0,-1.0,0.0,chosen,0.0,1.0,1956.0,2.1327483757562287,4.0,2328.0,-0.8734106321714651
118,Exp1,d11032021,GCq3m,outcome_evaluation,38.0,1.0,6.0,Wdekc1.jpg,5.0,,1.0,1.0,novel,0.0,0.0,1294.0,-0.3919588972566438,4.0,2729.0,-0.1753784179198308
119,Exp1,d11032021,GCq3m,outcome_evaluation,39.0,0.0,36.0,Gorkf1.jpg,7.0,0.0,-1.0,0.0,unchosen,0.0,1.0,1149.0,-0.9449536927050827,4.0,2700.0,-0.22585955062132057
120,Exp1,d11032021,qBGkp,outcome_evaluation,0.0,1.0,8.0,Klina1.jpg,2.0,1.0,-1.0,0.0,chosen,0.0,1.0,2411.0,1.51726414524819,1.0,3718.0,0.36115166154327744
121,Exp1,d11032021,qBGkp,outcome_evaluation,1.0,1.0,20.0,Gorc1n.jpg,1.0,0.0,-1.0,0.0,unchosen,0.0,1.0,1466.0,0.16578819995560135,1.0,2080.0,-0.11305938205109398
122,Exp1,d11032021,qBGkp,outcome_evaluation,2.0,1.0,26.0,Clib1n.jpg,20.0,,-1.0,1.0,novel,1.0,0.0,1585.0,0.3359740597331866,3.0,1955.0,-0.1492476485036559
123,Exp1,d11032021,qBGkp,outcome_evaluation,3.0,0.0,4.0,Mackb1.jpg,3.0,0.0,1.0,0.0,unchosen,0.0,0.0,1316.0,-0.048731791360682564,1.0,2032.0,-0.12695567636887775
124,Exp1,d11032021,qBGkp,outcome_evaluation,4.0,1.0,46.0,Deka1n.jpg,6.0,,-1.0,1.0,novel,0.0,1.0,1129.0,-0.3161667138683165,2.0,2096.0,-0.10842728394516606
125,Exp1,d11032021,qBGkp,outcome_evaluation,5.0,1.0,34.0,Monb1n.jpg,18.0,1.0,1.0,0.0,chosen,1.0,1.0,1213.0,-0.1960355187311975,6.0,2010.0,-0.13332481126452866
126,Exp1,d11032021,qBGkp,outcome_evaluation,6.0,1.0,15.0,Clia1n.jpg,20.0,0.0,1.0,0.0,unchosen,0.0,0.0,1276.0,-0.10593712237835827,1.0,2054.0,-0.12058654147322685
127,Exp1,d11032021,qBGkp,outcome_evaluation,7.0,1.0,14.0,Kupkb1.jpg,26.0,1.0,-1.0,0.0,chosen,0.0,1.0,817.0,-0.762368295806187,6.0,2646.0,0.050801088446106396
128,Exp1,d11032021,qBGkp,outcome_evaluation,8.0,0.0,17.0,Picab1.jpg,20.0,1.0,1.0,0.0,chosen,1.0,1.0,859.0,-0.7023026982376276,6.0,1787.0,-0.19788467861589912
129,Exp1,d11032021,qBGkp,outcome_evaluation,9.0,0.0,18.0,Krasb1.jpg,8.0,0.0,1.0,0.0,unchosen,0.0,0.0,1615.0,0.37887805799644336,1.0,1693.0,-0.2250982549882257
130,Exp1,d11032021,qBGkp,outcome_evaluation,10.0,1.0,53.0,Gorka1.jpg,0.0,1.0,-1.0,0.0,chosen,0.0,1.0,953.0,-0.5678701703460897,6.0,1926.0,-0.15764332632065026
131,Exp1,d11032021,qBGkp,outcome_evaluation,11.0,0.0,32.0,Macka1.jpg,16.0,1.0,1.0,0.0,chosen,1.0,1.0,1560.0,0.30022072784713927,6.0,1958.0,-0.14837913010879442
132,Exp1,d11032021,qBGkp,outcome_evaluation,12.0,0.0,49.0,Hinda1.jpg,5.0,1.0,1.0,0.0,chosen,1.0,1.0,886.0,-0.6636890998006965,6.0,1600.0,-0.25202232522893175
133,Exp1,d11032021,qBGkp,outcome_evaluation,13.0,0.0,37.0,Mondb1.jpg,1.0,0.0,-1.0,0.0,unchosen,0.0,1.0,929.0,-0.6021933689566951,1.0,1756.0,-0.20685936869613447
134,Exp1,d11032021,qBGkp,outcome_evaluation,14.0,1.0,22.0,Macb1n.jpg,12.0,,1.0,1.0,novel,1.0,1.0,1788.0,0.6262911146478908,1.0,1981.0,-0.14172048908152302
135,Exp1,d11032021,qBGkp,outcome_evaluation,15.0,0.0,24.0,Dekoa1.jpg,20.0,1.0,-1.0,0.0,chosen,0.0,1.0,1463.0,0.16149780012927567,6.0,1509.0,-0.2783673832063968
136,Exp1,d11032021,qBGkp,outcome_evaluation,16.0,0.0,11.0,Wdekb1.jpg,2.0,0.0,-1.0,0.0,unchosen,0.0,1.0,1350.0,-0.00010725999565820699,1.0,1620.0,-0.24623220259652184
137,Exp1,d11032021,qBGkp,outcome_evaluation,17.0,1.0,28.0,Krasa1.jpg,1.0,0.0,1.0,0.0,unchosen,1.0,1.0,1099.0,-0.3590707121315733,1.0,2349.0,-0.03518223264518072
138,Exp1,d11032021,qBGkp,outcome_evaluation,18.0,0.0,31.0,Maca1n.jpg,9.0,0.0,-1.0,0.0,unchosen,1.0,0.0,4898.0,5.0740056012721775,1.0,1877.0,-0.17182912677005455
139,Exp1,d11032021,qBGkp,outcome_evaluation,19.0,0.0,40.0,Krab1n.jpg,5.0,0.0,-1.0,0.0,unchosen,1.0,0.0,1107.0,-0.34762964592803813,1.0,1589.0,-0.2552068926767572
140,Exp1,d11032021,qBGkp,outcome_evaluation,20.0,1.0,19.0,Macc1n.jpg,18.0,,-1.0,1.0,novel,1.0,0.0,1135.0,-0.30758591421566517,1.0,1774.0,-0.20164825832696556
141,Exp1,d11032021,qBGkp,outcome_evaluation,21.0,1.0,51.0,Gora1n.jpg,12.0,,1.0,1.0,novel,0.0,0.0,1198.0,-0.2174875178628259,1.0,1686.0,-0.22712479790956916
142,Exp1,d11032021,qBGkp,outcome_evaluation,22.0,0.0,0.0,Gorkc1.jpg,18.0,0.0,1.0,0.0,unchosen,0.0,0.0,2178.0,1.184043092070229,1.0,1724.0,-0.2161235649079903
143,Exp1,d11032021,qBGkp,outcome_evaluation,23.0,0.0,5.0,Kupb1n.jpg,15.0,1.0,-1.0,0.0,chosen,0.0,1.0,970.0,-0.5435579046635775,6.0,2246.0,-0.06500136420209175
144,Exp1,d11032021,qBGkp,outcome_evaluation,24.0,0.0,16.0,Lewa1n.jpg,4.0,1.0,-1.0,0.0,chosen,0.0,1.0,1025.0,-0.46490057451427336,6.0,1923.0,-0.15851184471551175
145,Exp1,d11032021,qBGkp,outcome_evaluation,25.0,1.0,27.0,Vinb1n.jpg,1.0,0.0,-1.0,0.0,unchosen,0.0,1.0,956.0,-0.5635797705197639,1.0,1903.0,-0.16430196734792166
146,Exp1,d11032021,qBGkp,outcome_evaluation,26.0,0.0,1.0,Lewia1.jpg,2.0,1.0,-1.0,0.0,chosen,0.0,1.0,857.0,-0.7051629647885114,6.0,1542.0,-0.26881368086292046
147,Exp1,d11032021,qBGkp,outcome_evaluation,27.0,1.0,33.0,Kupc1n.jpg,0.0,1.0,1.0,0.0,chosen,1.0,1.0,1239.0,-0.1588520535697083,6.0,1833.0,-0.18456739656135632
148,Exp1,d11032021,qBGkp,outcome_evaluation,28.0,1.0,54.0,Kupka1.jpg,13.0,0.0,-1.0,0.0,unchosen,0.0,1.0,1584.0,0.3345439264577447,1.0,1689.0,-0.22625627951470767
149,Exp1,d11032021,qBGkp,outcome_evaluation,29.0,0.0,12.0,Kupkc1.jpg,4.0,0.0,1.0,0.0,unchosen,1.0,1.0,1334.0,-0.02298939240272849,1.0,1539.0,-0.269682199257782
150,Exp1,d11032021,qBGkp,outcome_evaluation,30.0,1.0,57.0,Lewc1n.jpg,4.0,,1.0,1.0,novel,1.0,1.0,1163.0,-0.26754218250329215,1.0,1468.0,-0.2902371346028371
151,Exp1,d11032021,qBGkp,outcome_evaluation,31.0,1.0,39.0,Dekb1n.jpg,2.0,,-1.0,1.0,novel,0.0,1.0,1196.0,-0.2203477844137097,1.0,1452.0,-0.2948692327087651
152,Exp1,d11032021,qBGkp,outcome_evaluation,32.0,1.0,44.0,Lassf1.jpg,6.0,0.0,1.0,0.0,unchosen,1.0,1.0,1225.0,-0.1788739194258948,1.0,1702.0,-0.22249269980364123
153,Exp1,d11032021,qBGkp,outcome_evaluation,33.0,1.0,59.0,Kraa1n.jpg,19.0,0.0,1.0,0.0,unchosen,1.0,1.0,2107.0,1.0825036295138546,1.0,1882.0,-0.17038159611195206
154,Exp1,d11032021,qBGkp,outcome_evaluation,34.0,1.0,3.0,Fogeg1.jpg,1.0,,1.0,1.0,novel,1.0,1.0,1875.0,0.7507127096113355,1.0,1936.0,-0.1547482650044453
155,Exp1,d11032021,qBGkp,outcome_evaluation,35.0,1.0,45.0,Klia1n.jpg,2.0,0.0,-1.0,0.0,unchosen,0.0,1.0,904.0,-0.6379467008427424,6.0,2966.0,0.14344305056466491
156,Exp1,d11032021,qBGkp,outcome_evaluation,36.0,0.0,10.0,Stera1.jpg,0.0,1.0,1.0,0.0,chosen,1.0,1.0,939.0,-0.5878920362022761,6.0,1991.0,-0.13882542776531806
157,Exp1,d11032021,qBGkp,outcome_evaluation,37.0,1.0,41.0,Vincb1.jpg,0.0,1.0,1.0,0.0,chosen,1.0,1.0,760.0,-0.8438858925063749,6.0,1817.0,-0.18919949466728425
158,Exp1,d11032021,qBGkp,outcome_evaluation,38.0,1.0,7.0,Pica1n.jpg,6.0,1.0,1.0,0.0,chosen,1.0,1.0,715.0,-0.9082418899012601,6.0,23615.0,6.121455162396273
159,Exp1,d11032021,qBGkp,outcome_evaluation,39.0,1.0,36.0,Gorkf1.jpg,10.0,1.0,-1.0,0.0,chosen,0.0,1.0,923.0,-0.6107741686093464,6.0,1897.0,-0.16603900413764464
160,Exp1,d11032021,BcmPt,outcome_evaluation,0.0,0.0,14.0,Kupkb1.jpg,58.0,0.0,1.0,0.0,unchosen,0.0,0.0,2661.0,1.5434773163823423,5.0,3410.0,-0.015311241137455902
161,Exp1,d11032021,BcmPt,outcome_evaluation,1.0,1.0,16.0,Lewa1n.jpg,50.0,1.0,-1.0,0.0,chosen,0.0,1.0,1579.0,0.06572710616161949,6.0,3133.0,-0.11463709113921944
162,Exp1,d11032021,BcmPt,outcome_evaluation,2.0,0.0,59.0,Kraa1n.jpg,50.0,1.0,1.0,0.0,chosen,1.0,1.0,1171.0,-0.49150217828390264,6.0,2487.0,-0.3462778821180615
163,Exp1,d11032021,BcmPt,outcome_evaluation,3.0,0.0,1.0,Lewia1.jpg,74.0,1.0,-1.0,0.0,chosen,0.0,1.0,1225.0,-0.41775124357787763,3.0,2142.0,-0.4699869732754926
164,Exp1,d11032021,BcmPt,outcome_evaluation,4.0,1.0,12.0,Kupkc1.jpg,34.0,,1.0,1.0,novel,1.0,1.0,3488.0,2.672959223824614,3.0,2542.0,-0.3265561429480362
165,Exp1,d11032021,BcmPt,outcome_evaluation,5.0,0.0,22.0,Macb1n.jpg,40.0,0.0,-1.0,0.0,unchosen,0.0,1.0,1080.0,-0.6157861608440559,5.0,2331.0,-0.40221590594576945
166,Exp1,d11032021,BcmPt,outcome_evaluation,6.0,0.0,35.0,Wdeka1.jpg,61.0,0.0,1.0,0.0,unchosen,1.0,1.0,1095.0,-0.5952997900923822,4.0,1828.0,-0.5825801750825459
167,Exp1,d11032021,BcmPt,outcome_evaluation,7.0,1.0,45.0,Klia1n.jpg,50.0,,-1.0,1.0,novel,0.0,1.0,756.0,-1.0582917690802058,4.0,2414.0,-0.37245400865282224
168,Exp1,d11032021,BcmPt,outcome_evaluation,8.0,0.0,42.0,Picc1n.jpg,38.0,1.0,1.0,0.0,chosen,1.0,1.0,1034.0,-0.6786110311491883,6.0,2461.0,-0.35560088608934615
169,Exp1,d11032021,BcmPt,outcome_evaluation,9.0,1.0,38.0,Lasc1n.jpg,31.0,,-1.0,1.0,novel,0.0,1.0,1156.0,-0.5119885490355762,4.0,1895.0,-0.558555511002697
170,Exp1,d11032021,BcmPt,outcome_evaluation,10.0,1.0,36.0,Gorkf1.jpg,60.0,0.0,-1.0,0.0,unchosen,0.0,1.0,1547.0,0.02202284855804913,2.0,2575.0,-0.31472309944602106
171,Exp1,d11032021,BcmPt,outcome_evaluation,11.0,1.0,51.0,Gora1n.jpg,27.0,0.0,-1.0,0.0,unchosen,0.0,1.0,931.0,-0.8192841103106804,3.0,3778.0,0.11664512276380395
172,Exp1,d11032021,BcmPt,outcome_evaluation,12.0,1.0,44.0,Lassf1.jpg,43.0,0.0,1.0,0.0,unchosen,0.0,0.0,1586.0,0.07528741251240051,1.0,4954.0,0.5383317639265257
173,Exp1,d11032021,BcmPt,outcome_evaluation,13.0,1.0,30.0,Lasse1.jpg,34.0,,1.0,1.0,novel,0.0,0.0,1754.0,0.30473476493114493,3.0,2384.0,-0.38321132092738147
174,Exp1,d11032021,BcmPt,outcome_evaluation,14.0,1.0,56.0,Luisc1.jpg,45.0,1.0,-1.0,0.0,chosen,0.0,1.0,1115.0,-0.5679846290901508,5.0,2427.0,-0.36779250666717994
175,Exp1,d11032021,BcmPt,outcome_evaluation,15.0,0.0,19.0,Macc1n.jpg,58.0,1.0,-1.0,0.0,chosen,0.0,1.0,879.0,-0.8903035289164822,4.0,1782.0,-0.5990747205702033
176,Exp1,d11032021,BcmPt,outcome_evaluation,16.0,0.0,29.0,Clifb1.jpg,56.0,1.0,1.0,0.0,chosen,1.0,1.0,990.0,-0.7387043853540975,6.0,1952.0,-0.5381166176810344
177,Exp1,d11032021,BcmPt,outcome_evaluation,17.0,0.0,40.0,Krab1n.jpg,61.0,0.0,1.0,0.0,unchosen,0.0,0.0,909.0,-0.849330787413135,1.0,2948.0,-0.180973850165668
178,Exp1,d11032021,BcmPt,outcome_evaluation,18.0,1.0,28.0,Krasa1.jpg,39.0,,-1.0,1.0,novel,0.0,1.0,1390.0,-0.19240116530946796,3.0,1942.0,-0.5417023884392208
179,Exp1,d11032021,BcmPt,outcome_evaluation,19.0,1.0,47.0,Kupkd1.jpg,59.0,,1.0,1.0,novel,0.0,0.0,1245.0,-0.39043608257564616,4.0,2367.0,-0.3893071312162984
180,Exp1,d11032021,BcmPt,outcome_evaluation,20.0,0.0,2.0,Dekob1.jpg,44.0,1.0,-1.0,0.0,chosen,0.0,1.0,2804.0,1.7387807175482974,3.0,3527.0,0.026642276733325088
181,Exp1,d11032021,BcmPt,outcome_evaluation,21.0,0.0,8.0,Klina1.jpg,60.0,0.0,-1.0,0.0,unchosen,0.0,1.0,1116.0,-0.5666188710400392,4.0,3455.0,0.0008247272743829394
182,Exp1,d11032021,BcmPt,outcome_evaluation,22.0,1.0,46.0,Deka1n.jpg,58.0,1.0,-1.0,0.0,chosen,0.0,1.0,1066.0,-0.6349067735456179,6.0,3077.0,-0.13471740738506333
183,Exp1,d11032021,BcmPt,outcome_evaluation,23.0,1.0,9.0,Lassc1.jpg,30.0,0.0,-1.0,0.0,unchosen,0.0,1.0,1415.0,-0.1582572140566786,1.0,4116.0,0.2378441743905046
184,Exp1,d11032021,BcmPt,outcome_evaluation,24.0,1.0,37.0,Mondb1.jpg,50.0,,-1.0,1.0,novel,0.0,1.0,1557.0,0.03568042905916487,3.0,4223.0,0.27621192150309914
185,Exp1,d11032021,BcmPt,outcome_evaluation,25.0,0.0,53.0,Gorka1.jpg,72.0,0.0,1.0,0.0,unchosen,0.0,0.0,1487.0,-0.059922634448645304,3.0,3733.0,0.10050915435196511
186,Exp1,d11032021,BcmPt,outcome_evaluation,26.0,1.0,27.0,Vinb1n.jpg,66.0,1.0,1.0,0.0,chosen,1.0,1.0,1274.0,-0.35082909912241056,6.0,3245.0,-0.07447645864753165
187,Exp1,d11032021,BcmPt,outcome_evaluation,27.0,1.0,34.0,Monb1n.jpg,28.0,0.0,1.0,0.0,unchosen,0.0,0.0,714.0,-1.115653607184892,2.0,3202.0,-0.08989527290773322
188,Exp1,d11032021,BcmPt,outcome_evaluation,28.0,1.0,4.0,Mackb1.jpg,63.0,0.0,1.0,0.0,unchosen,0.0,0.0,1178.0,-0.4819418719331216,2.0,10843.0,2.649992163422502
189,Exp1,d11032021,BcmPt,outcome_evaluation,29.0,0.0,17.0,Picab1.jpg,50.0,0.0,-1.0,0.0,unchosen,0.0,1.0,2121.0,0.8059679693220925,4.0,4441.0,0.3543817240315629
190,Exp1,d11032021,BcmPt,outcome_evaluation,30.0,1.0,31.0,Maca1n.jpg,32.0,0.0,-1.0,0.0,unchosen,0.0,1.0,2263.0,0.999905612437936,2.0,4791.0,0.4798837005680872
191,Exp1,d11032021,BcmPt,outcome_evaluation,31.0,1.0,50.0,Gorke1.jpg,56.0,0.0,1.0,0.0,unchosen,1.0,1.0,2998.0,2.003737779269943,2.0,17918.0,5.186924974839386
192,Exp1,d11032021,BcmPt,outcome_evaluation,32.0,1.0,49.0,Hinda1.jpg,37.0,1.0,-1.0,0.0,chosen,0.0,1.0,3021.0,2.035150214422509,6.0,3373.0,-0.028578592942745618
193,Exp1,d11032021,BcmPt,outcome_evaluation,33.0,0.0,15.0,Clia1n.jpg,33.0,1.0,-1.0,0.0,chosen,0.0,1.0,2532.0,1.3672945279179494,5.0,1905.0,-0.5549697402445105
194,Exp1,d11032021,BcmPt,outcome_evaluation,34.0,0.0,5.0,Kupb1n.jpg,62.0,0.0,-1.0,0.0,unchosen,0.0,1.0,718.0,-1.1101905749844456,3.0,2142.0,-0.4699869732754926
195,Exp1,d11032021,BcmPt,outcome_evaluation,35.0,1.0,13.0,Picak1.jpg,59.0,1.0,1.0,0.0,chosen,1.0,1.0,851.0,-0.9285447543196063,6.0,2432.0,-0.3659996212880867
196,Exp1,d11032021,BcmPt,outcome_evaluation,36.0,1.0,33.0,Kupc1n.jpg,31.0,,1.0,1.0,novel,0.0,0.0,2882.0,1.8453098454570003,5.0,2060.0,-0.49939029349262115
197,Exp1,d11032021,BcmPt,outcome_evaluation,37.0,0.0,24.0,Dekoa1.jpg,60.0,1.0,1.0,0.0,chosen,1.0,1.0,1286.0,-0.33444000252107164,6.0,2897.0,-0.1992612810324187
198,Exp1,d11032021,BcmPt,outcome_evaluation,38.0,1.0,23.0,Lewib1.jpg,69.0,1.0,1.0,0.0,chosen,1.0,1.0,1236.0,-0.40272790502665035,6.0,2480.0,-0.34878792164879197
199,Exp1,d11032021,BcmPt,outcome_evaluation,39.0,1.0,57.0,Lewc1n.jpg,68.0,1.0,1.0,0.0,chosen,1.0,1.0,1125.0,-0.554327048589035,6.0,2496.0,-0.3430506884356937
200,Exp1,d11032021,8gPGn,outcome_evaluation,0.0,0.0,1.0,Lewia1.jpg,43.0,0.0,-1.0,0.0,unchosen,1.0,0.0,7714.0,3.6357563031726525,1.0,3468.0,3.721243800552489
201,Exp1,d11032021,8gPGn,outcome_evaluation,1.0,0.0,55.0,Lewic1.jpg,73.0,1.0,-1.0,0.0,chosen,0.0,1.0,1691.0,-0.41072863469452037,6.0,2559.0,1.6981210776037532
202,Exp1,d11032021,8gPGn,outcome_evaluation,2.0,1.0,51.0,Gora1n.jpg,38.0,,-1.0,1.0,novel,0.0,1.0,1734.0,-0.38183956739777647,2.0,3005.0,2.6907643498096236
203,Exp1,d11032021,8gPGn,outcome_evaluation,3.0,1.0,20.0,Gorc1n.jpg,22.0,0.0,-1.0,0.0,unchosen,0.0,1.0,3073.0,0.5177525514473414,2.0,1784.0,-0.02676353217102171
204,Exp1,d11032021,8gPGn,outcome_evaluation,4.0,1.0,14.0,Kupkb1.jpg,65.0,1.0,-1.0,0.0,chosen,0.0,1.0,2835.0,0.35785492315373574,6.0,1554.0,-0.5386647712009549
205,Exp1,d11032021,8gPGn,outcome_evaluation,5.0,0.0,54.0,Kupka1.jpg,71.0,1.0,-1.0,0.0,chosen,0.0,1.0,1497.0,-0.5410653569170393,6.0,1708.0,-0.19591350680699965
206,Exp1,d11032021,8gPGn,outcome_evaluation,6.0,0.0,3.0,Fogeg1.jpg,74.0,1.0,-1.0,0.0,chosen,0.0,1.0,1065.0,-0.831299707433164,6.0,1342.0,-1.0105041741328933
207,Exp1,d11032021,8gPGn,outcome_evaluation,7.0,1.0,25.0,Clifa1.jpg,21.0,,1.0,1.0,novel,0.0,0.0,4545.0,1.5066992272800626,1.0,1824.0,0.06226277026896667
208,Exp1,d11032021,8gPGn,outcome_evaluation,8.0,1.0,53.0,Gorka1.jpg,67.0,0.0,-1.0,0.0,unchosen,1.0,0.0,4149.0,1.2406510726402815,1.0,1889.0,0.2069305117339478
209,Exp1,d11032021,8gPGn,outcome_evaluation,9.0,1.0,19.0,Macc1n.jpg,39.0,,1.0,1.0,novel,1.0,1.0,5712.0,2.290735076938205,1.0,1961.0,0.3671778561259269
210,Exp1,d11032021,8gPGn,outcome_evaluation,10.0,0.0,57.0,Lewc1n.jpg,40.0,0.0,-1.0,0.0,unchosen,0.0,1.0,2566.0,0.1771302928555007,1.0,1986.0,0.4228192951509196
211,Exp1,d11032021,8gPGn,outcome_evaluation,11.0,1.0,43.0,Picac1.jpg,68.0,1.0,1.0,0.0,chosen,1.0,1.0,1166.0,-0.763443991224533,6.0,1593.0,-0.4518641263219662
212,Exp1,d11032021,8gPGn,outcome_evaluation,12.0,1.0,26.0,Clib1n.jpg,26.0,0.0,1.0,0.0,unchosen,0.0,0.0,1413.0,-0.5974998139618413,1.0,1887.0,0.20247919661194838
213,Exp1,d11032021,8gPGn,outcome_evaluation,13.0,0.0,34.0,Monb1n.jpg,19.0,0.0,1.0,0.0,unchosen,1.0,1.0,2650.0,0.2335647499003027,1.0,1371.0,-0.9459601048639018
214,Exp1,d11032021,8gPGn,outcome_evaluation,14.0,1.0,38.0,Lasc1n.jpg,31.0,1.0,-1.0,0.0,chosen,0.0,1.0,1241.0,-0.7130560831488169,6.0,1322.0,-1.0550173253528876
215,Exp1,d11032021,8gPGn,outcome_evaluation,15.0,1.0,21.0,Lewb1n.jpg,21.0,1.0,-1.0,0.0,chosen,0.0,1.0,1041.0,-0.8474238380173931,6.0,1608.0,-0.4184792629069706
216,Exp1,d11032021,8gPGn,outcome_evaluation,16.0,1.0,16.0,Lewa1n.jpg,63.0,0.0,1.0,0.0,unchosen,0.0,0.0,2256.0,-0.03113972719079248,1.0,1524.0,-0.6054344980309462
217,Exp1,d11032021,8gPGn,outcome_evaluation,17.0,0.0,5.0,Kupb1n.jpg,71.0,1.0,1.0,0.0,chosen,1.0,1.0,1462.0,-0.5645797140190402,6.0,1634.0,-0.36061216632097814
218,Exp1,d11032021,8gPGn,outcome_evaluation,18.0,0.0,22.0,Macb1n.jpg,34.0,0.0,1.0,0.0,unchosen,0.0,0.0,2045.0,-0.1728977085771404,1.0,1809.0,0.028877906853971028
219,Exp1,d11032021,8gPGn,outcome_evaluation,19.0,1.0,29.0,Clifb1.jpg,36.0,0.0,-1.0,0.0,unchosen,0.0,1.0,1611.0,-0.46447573664195085,1.0,1607.0,-0.4207049204679703
220,Exp1,d11032021,8gPGn,outcome_evaluation,20.0,0.0,41.0,Vincb1.jpg,29.0,0.0,-1.0,0.0,unchosen,0.0,1.0,3227.0,0.6212157226961451,1.0,1458.0,-0.752327897056927
221,Exp1,d11032021,8gPGn,outcome_evaluation,21.0,1.0,11.0,Wdekb1.jpg,26.0,0.0,-1.0,0.0,unchosen,0.0,1.0,2033.0,-0.180959773869255,1.0,1603.0,-0.42960755071196915
222,Exp1,d11032021,8gPGn,outcome_evaluation,22.0,1.0,15.0,Clia1n.jpg,68.0,1.0,1.0,0.0,chosen,1.0,1.0,1287.0,-0.6821514995290443,6.0,1593.0,-0.4518641263219662
223,Exp1,d11032021,8gPGn,outcome_evaluation,23.0,1.0,52.0,Picaa1.jpg,71.0,,-1.0,1.0,novel,1.0,0.0,2380.0,0.05216828082772478,3.0,2058.0,0.5830666395428987
224,Exp1,d11032021,8gPGn,outcome_evaluation,24.0,1.0,39.0,Dekb1n.jpg,74.0,,-1.0,1.0,novel,1.0,0.0,1509.0,-0.5330032916249247,4.0,1811.0,0.03332922197597045
225,Exp1,d11032021,8gPGn,outcome_evaluation,25.0,0.0,24.0,Dekoa1.jpg,70.0,1.0,-1.0,0.0,chosen,0.0,1.0,1201.0,-0.7399296341225321,6.0,2042.0,0.5474561185669033
226,Exp1,d11032021,8gPGn,outcome_evaluation,26.0,1.0,9.0,Lassc1.jpg,74.0,,1.0,1.0,novel,1.0,1.0,2765.0,0.310826208949734,1.0,2173.0,0.8390172590578653
227,Exp1,d11032021,8gPGn,outcome_evaluation,27.0,0.0,33.0,Kupc1n.jpg,35.0,0.0,1.0,0.0,unchosen,1.0,1.0,4009.0,1.1465936442322782,1.0,2285.0,1.0882909058898327
228,Exp1,d11032021,8gPGn,outcome_evaluation,28.0,0.0,10.0,Stera1.jpg,37.0,0.0,1.0,0.0,unchosen,0.0,0.0,1242.0,-0.712384244374474,2.0,1760.0,-0.08017931363501474
229,Exp1,d11032021,8gPGn,outcome_evaluation,29.0,0.0,35.0,Wdeka1.jpg,29.0,1.0,1.0,0.0,chosen,1.0,1.0,1360.0,-0.633107269002014,6.0,1446.0,-0.7790357877889236
230,Exp1,d11032021,8gPGn,outcome_evaluation,30.0,1.0,27.0,Vinb1n.jpg,72.0,1.0,1.0,0.0,chosen,1.0,1.0,1554.0,-0.5027705467794951,6.0,1432.0,-0.8101949936429195
231,Exp1,d11032021,8gPGn,outcome_evaluation,31.0,1.0,45.0,Klia1n.jpg,73.0,,1.0,1.0,novel,0.0,0.0,2574.0,0.18250500305024372,1.0,2060.0,0.5875179546648981
232,Exp1,d11032021,8gPGn,outcome_evaluation,32.0,1.0,2.0,Dekob1.jpg,68.0,0.0,1.0,0.0,unchosen,1.0,1.0,1310.0,-0.666699207719158,2.0,2165.0,0.8212119985698676
233,Exp1,d11032021,8gPGn,outcome_evaluation,33.0,0.0,12.0,Kupkc1.jpg,35.0,0.0,-1.0,0.0,unchosen,1.0,0.0,5648.0,2.2477373953802604,1.0,1827.0,0.0689397429519658
234,Exp1,d11032021,8gPGn,outcome_evaluation,34.0,1.0,28.0,Krasa1.jpg,63.0,1.0,1.0,0.0,chosen,1.0,1.0,1336.0,-0.6492313995862432,6.0,1431.0,-0.8124206512039192
235,Exp1,d11032021,8gPGn,outcome_evaluation,35.0,0.0,40.0,Krab1n.jpg,68.0,1.0,1.0,0.0,chosen,1.0,1.0,1127.0,-0.7896457034239053,6.0,1277.0,-1.1551719155978744
236,Exp1,d11032021,8gPGn,outcome_evaluation,36.0,0.0,42.0,Picc1n.jpg,68.0,1.0,1.0,0.0,chosen,1.0,1.0,1144.0,-0.7782244442600763,6.0,1318.0,-1.0639199555968863
237,Exp1,d11032021,8gPGn,outcome_evaluation,37.0,1.0,47.0,Kupkd1.jpg,27.0,,-1.0,1.0,novel,0.0,1.0,1959.0,-0.2306758431706282,1.0,1488.0,-0.6855581702269358
238,Exp1,d11032021,8gPGn,outcome_evaluation,38.0,1.0,6.0,Wdekc1.jpg,36.0,1.0,-1.0,0.0,chosen,0.0,1.0,1185.0,-0.7506790545120182,6.0,1384.0,-0.9170265565709055
239,Exp1,d11032021,8gPGn,outcome_evaluation,39.0,1.0,8.0,Klina1.jpg,38.0,0.0,1.0,0.0,unchosen,1.0,1.0,1778.0,-0.35227866132668967,1.0,1795.0,-0.0022812990000249046
240,Exp1,d11042021,339Ys,outcome_evaluation,0.0,1.0,57.0,Lewc1n.jpg,24.0,0.0,-1.0,0.0,unchosen,0.0,1.0,2851.0,1.6723580387303292,1.0,4031.0,2.5186053046985126
241,Exp1,d11042021,339Ys,outcome_evaluation,1.0,1.0,2.0,Dekob1.jpg,17.0,,1.0,1.0,novel,0.0,0.0,2767.0,1.5249712056776366,1.0,2963.0,1.148075426514419
242,Exp1,d11042021,339Ys,outcome_evaluation,2.0,1.0,9.0,Lassc1.jpg,33.0,0.0,1.0,0.0,unchosen,0.0,0.0,2766.0,1.5232166005222474,2.0,2615.0,0.7014982751960065
243,Exp1,d11042021,339Ys,outcome_evaluation,3.0,1.0,55.0,Lewic1.jpg,78.0,1.0,1.0,0.0,chosen,1.0,1.0,1388.0,-0.8946293036040672,6.0,2523.0,0.5834376489853917
244,Exp1,d11042021,339Ys,outcome_evaluation,4.0,1.0,34.0,Monb1n.jpg,70.0,,-1.0,1.0,novel,0.0,1.0,1888.0,-0.017326725909468328,1.0,2103.0,0.04446522498041102
245,Exp1,d11042021,339Ys,outcome_evaluation,5.0,1.0,8.0,Klina1.jpg,65.0,0.0,-1.0,0.0,unchosen,1.0,0.0,1596.0,-0.5296714312831141,2.0,2280.0,0.2716036036682243
246,Exp1,d11042021,339Ys,outcome_evaluation,6.0,1.0,51.0,Gora1n.jpg,78.0,,-1.0,1.0,novel,0.0,1.0,1910.0,0.021274587509094025,1.0,1711.0,-0.45857570409090426
247,Exp1,d11042021,339Ys,outcome_evaluation,7.0,0.0,12.0,Kupkc1.jpg,22.0,1.0,-1.0,0.0,chosen,1.0,0.0,2727.0,1.4547869994620686,2.0,5621.0,4.5590009098602255
248,Exp1,d11042021,339Ys,outcome_evaluation,8.0,1.0,16.0,Lewa1n.jpg,63.0,0.0,1.0,0.0,unchosen,0.0,0.0,2031.0,0.23358181131118697,1.0,1966.0,-0.13134244665930886
249,Exp1,d11042021,339Ys,outcome_evaluation,9.0,0.0,10.0,Stera1.jpg,39.0,0.0,-1.0,0.0,unchosen,0.0,1.0,2246.0,0.6108219197198645,3.0,1599.0,-0.6023016838255658
250,Exp1,d11042021,339Ys,outcome_evaluation,10.0,0.0,42.0,Picc1n.jpg,36.0,0.0,-1.0,0.0,unchosen,1.0,0.0,2136.0,0.4178153526270527,1.0,2139.0,0.09066286132369508
251,Exp1,d11042021,339Ys,outcome_evaluation,11.0,1.0,36.0,Gorkf1.jpg,18.0,0.0,-1.0,0.0,unchosen,0.0,1.0,1776.0,-0.21384250331305849,1.0,1677.0,-0.5022068050817836
252,Exp1,d11042021,339Ys,outcome_evaluation,12.0,1.0,39.0,Dekb1n.jpg,84.0,0.0,-1.0,0.0,unchosen,0.0,1.0,2261.0,0.6371409970507025,4.0,2075.0,0.008533730046745644
253,Exp1,d11042021,339Ys,outcome_evaluation,13.0,1.0,13.0,Picak1.jpg,83.0,1.0,-1.0,0.0,chosen,0.0,1.0,3024.0,1.9759047306126605,6.0,2208.0,0.1792083309816562
254,Exp1,d11042021,339Ys,outcome_evaluation,14.0,1.0,37.0,Mondb1.jpg,61.0,,1.0,1.0,novel,0.0,0.0,2429.0,0.9319146631560877,1.0,2285.0,0.27801994204923597
255,Exp1,d11042021,339Ys,outcome_evaluation,15.0,1.0,25.0,Clifa1.jpg,62.0,,1.0,1.0,novel,0.0,0.0,2002.0,0.18269826180490023,1.0,1838.0,-0.29560070921320775
256,Exp1,d11042021,339Ys,outcome_evaluation,16.0,1.0,22.0,Macb1n.jpg,83.0,1.0,-1.0,0.0,chosen,0.0,1.0,1876.0,-0.038381987774138704,6.0,1925.0,-0.1839564213836046
257,Exp1,d11042021,339Ys,outcome_evaluation,17.0,0.0,58.0,Mackc1.jpg,58.0,1.0,1.0,0.0,chosen,1.0,1.0,993.0,-1.5876983399828004,6.0,1501.0,-0.7280619160933947
258,Exp1,d11042021,339Ys,outcome_evaluation,18.0,0.0,48.0,Picb1n.jpg,76.0,0.0,1.0,0.0,unchosen,0.0,0.0,2017.0,0.2090173391357382,2.0,2408.0,0.4358618662221232
259,Exp1,d11042021,339Ys,outcome_evaluation,19.0,1.0,52.0,Picaa1.jpg,79.0,,-1.0,1.0,novel,1.0,0.0,2219.0,0.5634475805243562,1.0,1622.0,-0.5727865272729121
260,Exp1,d11042021,339Ys,outcome_evaluation,20.0,0.0,27.0,Vinb1n.jpg,90.0,1.0,1.0,0.0,chosen,1.0,1.0,1386.0,-0.8981385139148457,6.0,1549.0,-0.6664650676356825
261,Exp1,d11042021,339Ys,outcome_evaluation,21.0,0.0,53.0,Gorka1.jpg,90.0,1.0,1.0,0.0,chosen,1.0,1.0,1218.0,-1.192912180020231,6.0,1706.0,-0.46499204247191595
262,Exp1,d11042021,339Ys,outcome_evaluation,22.0,0.0,17.0,Picab1.jpg,37.0,0.0,-1.0,0.0,unchosen,0.0,1.0,1719.0,-0.3138549971702428,1.0,1871.0,-0.2532528758985307
263,Exp1,d11042021,339Ys,outcome_evaluation,23.0,0.0,32.0,Macka1.jpg,32.0,1.0,-1.0,0.0,chosen,0.0,1.0,3295.0,2.451402727723133,4.0,1692.0,-0.48295778993874866
264,Exp1,d11042021,339Ys,outcome_evaluation,24.0,0.0,29.0,Clifb1.jpg,21.0,1.0,-1.0,0.0,chosen,0.0,1.0,1430.0,-0.8209358870777209,6.0,1313.0,-0.9693162392194336
265,Exp1,d11042021,339Ys,outcome_evaluation,25.0,1.0,35.0,Wdeka1.jpg,59.0,0.0,1.0,0.0,unchosen,0.0,0.0,1914.0,0.028293008130650815,1.0,2008.0,-0.0774452042588108
266,Exp1,d11042021,339Ys,outcome_evaluation,26.0,1.0,54.0,Kupka1.jpg,67.0,1.0,1.0,0.0,chosen,1.0,1.0,1142.0,-1.32626217182981,6.0,1361.0,-0.9077193907617215
267,Exp1,d11042021,339Ys,outcome_evaluation,27.0,1.0,7.0,Pica1n.jpg,81.0,1.0,-1.0,0.0,chosen,0.0,1.0,1499.0,-0.6998681313558663,4.0,2441.0,0.4782096995368002
268,Exp1,d11042021,339Ys,outcome_evaluation,28.0,0.0,43.0,Picac1.jpg,63.0,1.0,1.0,0.0,chosen,1.0,1.0,865.0,-1.8122877998726177,6.0,1868.0,-0.2571026789271377
269,Exp1,d11042021,339Ys,outcome_evaluation,29.0,0.0,45.0,Klia1n.jpg,61.0,0.0,1.0,0.0,unchosen,0.0,0.0,1779.0,-0.2085786878468909,2.0,1448.0,-0.7960751029321184
270,Exp1,d11042021,339Ys,outcome_evaluation,30.0,1.0,1.0,Lewia1.jpg,87.0,1.0,-1.0,0.0,chosen,0.0,1.0,1355.0,-0.9525312737319108,6.0,2544.0,0.6103862701856407
271,Exp1,d11042021,339Ys,outcome_evaluation,31.0,0.0,44.0,Lassf1.jpg,72.0,0.0,1.0,0.0,unchosen,0.0,0.0,2011.0,0.198489708203403,1.0,2033.0,-0.045363512353752425
272,Exp1,d11042021,339Ys,outcome_evaluation,32.0,0.0,0.0,Gorkc1.jpg,31.0,0.0,1.0,0.0,unchosen,0.0,0.0,1678.0,-0.3857938085411999,3.0,1764.0,-0.3905625172521805
273,Exp1,d11042021,339Ys,outcome_evaluation,33.0,0.0,4.0,Mackb1.jpg,72.0,0.0,-1.0,0.0,unchosen,1.0,0.0,2254.0,0.6248587609629781,3.0,2539.0,0.6039699318046291
274,Exp1,d11042021,339Ys,outcome_evaluation,34.0,0.0,59.0,Kraa1n.jpg,68.0,1.0,-1.0,0.0,chosen,0.0,1.0,1602.0,-0.5191438003507789,6.0,1339.0,-0.9359512796381728
275,Exp1,d11042021,339Ys,outcome_evaluation,35.0,1.0,46.0,Deka1n.jpg,37.0,1.0,1.0,0.0,chosen,1.0,1.0,1177.0,-1.264850991391188,6.0,1485.0,-0.748594198912632
276,Exp1,d11042021,339Ys,outcome_evaluation,36.0,1.0,33.0,Kupc1n.jpg,40.0,,1.0,1.0,novel,0.0,0.0,1987.0,0.15637918447406227,2.0,1436.0,-0.8114743150465463
277,Exp1,d11042021,339Ys,outcome_evaluation,37.0,1.0,47.0,Kupkd1.jpg,78.0,1.0,1.0,0.0,chosen,1.0,1.0,1198.0,-1.228004283128015,6.0,1388.0,-0.8730711635042585
278,Exp1,d11042021,339Ys,outcome_evaluation,38.0,1.0,56.0,Luisc1.jpg,62.0,0.0,1.0,0.0,unchosen,1.0,1.0,1786.0,-0.19629645175916652,2.0,2050.0,-0.02354796185831273
279,Exp1,d11042021,339Ys,outcome_evaluation,39.0,1.0,15.0,Clia1n.jpg,66.0,,-1.0,1.0,novel,1.0,0.0,1717.0,-0.3173642074810212,1.0,1809.0,-0.33281547182307547
280,Exp1,d11032021,JY6WO,outcome_evaluation,0.0,1.0,24.0,Dekoa1.jpg,31.0,,-1.0,1.0,novel,0.0,1.0,5253.0,3.4967792371083197,3.0,3057.0,0.943453590574942
281,Exp1,d11032021,JY6WO,outcome_evaluation,1.0,1.0,6.0,Wdekc1.jpg,21.0,0.0,1.0,0.0,unchosen,0.0,0.0,2107.0,0.6667010996821311,3.0,1899.0,-0.46054211447650406
282,Exp1,d11032021,JY6WO,outcome_evaluation,2.0,0.0,59.0,Kraa1n.jpg,50.0,0.0,-1.0,0.0,unchosen,1.0,0.0,1506.0,0.12605362333338993,4.0,2557.0,0.3372378284629187
283,Exp1,d11032021,JY6WO,outcome_evaluation,3.0,0.0,27.0,Vinb1n.jpg,24.0,1.0,-1.0,0.0,chosen,0.0,1.0,1538.0,0.1548401778145209,6.0,3757.0,1.7921556575317747
284,Exp1,d11032021,JY6WO,outcome_evaluation,4.0,0.0,5.0,Kupb1n.jpg,32.0,0.0,1.0,0.0,unchosen,0.0,0.0,5449.0,3.6730968833052473,3.0,3334.0,1.279297122785003
285,Exp1,d11032021,JY6WO,outcome_evaluation,5.0,1.0,25.0,Clifa1.jpg,21.0,,-1.0,1.0,novel,0.0,1.0,3451.0,1.875736387889632,1.0,4789.0,3.043384990530991
286,Exp1,d11032021,JY6WO,outcome_evaluation,6.0,0.0,45.0,Klia1n.jpg,21.0,1.0,1.0,0.0,chosen,1.0,1.0,787.0,-0.5207442726645216,6.0,2103.0,-0.2132060835347985
287,Exp1,d11032021,JY6WO,outcome_evaluation,7.0,1.0,0.0,Gorkc1.jpg,25.0,,1.0,1.0,novel,0.0,0.0,1302.0,-0.05746066148382003,3.0,2058.0,-0.2677655021248806
288,Exp1,d11032021,JY6WO,outcome_evaluation,8.0,1.0,39.0,Dekb1n.jpg,31.0,,-1.0,1.0,novel,0.0,1.0,818.0,-0.49285729801092604,3.0,1684.0,-0.721214892184674
289,Exp1,d11032021,JY6WO,outcome_evaluation,9.0,0.0,2.0,Dekob1.jpg,28.0,0.0,1.0,0.0,unchosen,0.0,0.0,1071.0,-0.26526360164448426,2.0,2983.0,0.8537336577823627
290,Exp1,d11032021,JY6WO,outcome_evaluation,10.0,0.0,44.0,Lassf1.jpg,18.0,1.0,1.0,0.0,chosen,1.0,1.0,612.0,-0.6781707424832066,6.0,2581.0,0.3663361850442958
291,Exp1,d11032021,JY6WO,outcome_evaluation,11.0,1.0,36.0,Gorkf1.jpg,26.0,1.0,-1.0,0.0,chosen,0.0,1.0,864.0,-0.4514766259443002,6.0,2184.0,-0.11499913007265072
292,Exp1,d11032021,JY6WO,outcome_evaluation,12.0,1.0,29.0,Clifb1.jpg,16.0,,1.0,1.0,novel,0.0,0.0,1451.0,0.07657673281894607,3.0,4906.0,3.1852394788652045
293,Exp1,d11032021,JY6WO,outcome_evaluation,13.0,1.0,16.0,Lewa1n.jpg,29.0,0.0,-1.0,0.0,unchosen,1.0,0.0,1578.0,0.19082337091593463,4.0,1959.0,-0.3877962230230612
294,Exp1,d11032021,JY6WO,outcome_evaluation,14.0,1.0,19.0,Macc1n.jpg,25.0,1.0,-1.0,0.0,chosen,0.0,1.0,926.0,-0.39570267663710895,6.0,2569.0,0.35178700675360725
295,Exp1,d11032021,JY6WO,outcome_evaluation,15.0,0.0,35.0,Wdeka1.jpg,32.0,0.0,-1.0,0.0,unchosen,1.0,0.0,2986.0,1.4574317680856974,3.0,2859.0,0.7033921487785808
296,Exp1,d11032021,JY6WO,outcome_evaluation,16.0,0.0,1.0,Lewia1.jpg,33.0,0.0,1.0,0.0,unchosen,1.0,1.0,1525.0,0.14314564005656144,3.0,1601.0,-0.82184670869527
297,Exp1,d11032021,JY6WO,outcome_evaluation,17.0,0.0,30.0,Lasse1.jpg,24.0,0.0,1.0,0.0,unchosen,0.0,0.0,1466.0,0.09007043023197621,4.0,1763.0,-0.6254328017709744
298,Exp1,d11032021,JY6WO,outcome_evaluation,18.0,1.0,13.0,Picak1.jpg,26.0,1.0,1.0,0.0,chosen,1.0,1.0,1783.0,0.37523723556067995,6.0,1768.0,-0.6193706441498542
299,Exp1,d11032021,JY6WO,outcome_evaluation,19.0,1.0,41.0,Vincb1.jpg,57.0,1.0,-1.0,0.0,chosen,0.0,1.0,1788.0,0.3797351346983566,6.0,2426.0,0.1784092987895686
300,Exp1,d11032021,JY6WO,outcome_evaluation,20.0,1.0,34.0,Monb1n.jpg,25.0,,1.0,1.0,novel,0.0,0.0,1155.0,-0.18969889613151544,3.0,2202.0,-0.09317536263661788
301,Exp1,d11032021,JY6WO,outcome_evaluation,21.0,0.0,51.0,Gora1n.jpg,18.0,0.0,-1.0,0.0,unchosen,0.0,1.0,804.0,-0.5054514155964208,4.0,1699.0,-0.7030284193213134
302,Exp1,d11032021,JY6WO,outcome_evaluation,22.0,1.0,10.0,Stera1.jpg,19.0,,-1.0,1.0,novel,1.0,0.0,786.0,-0.521643852492057,4.0,1765.0,-0.6230079387225264
303,Exp1,d11032021,JY6WO,outcome_evaluation,23.0,1.0,26.0,Clib1n.jpg,25.0,0.0,-1.0,0.0,unchosen,0.0,1.0,728.0,-0.5738194824891069,3.0,2533.0,0.3081394718815416
304,Exp1,d11032021,JY6WO,outcome_evaluation,24.0,1.0,22.0,Macb1n.jpg,27.0,1.0,1.0,0.0,chosen,1.0,1.0,1013.0,-0.31743923164153415,6.0,2249.0,-0.03619108099808768
305,Exp1,d11032021,JY6WO,outcome_evaluation,25.0,1.0,31.0,Maca1n.jpg,26.0,1.0,1.0,0.0,chosen,1.0,1.0,676.0,-0.6205976335209448,6.0,2035.0,-0.2956514271820337
306,Exp1,d11032021,JY6WO,outcome_evaluation,26.0,1.0,46.0,Deka1n.jpg,21.0,0.0,1.0,0.0,unchosen,0.0,0.0,640.0,-0.6529825073122171,3.0,1613.0,-0.8072975304045814
307,Exp1,d11032021,JY6WO,outcome_evaluation,27.0,1.0,42.0,Picc1n.jpg,29.0,0.0,-1.0,0.0,unchosen,0.0,1.0,722.0,-0.5792169614543189,4.0,1549.0,-0.8848931479549204
308,Exp1,d11032021,JY6WO,outcome_evaluation,28.0,0.0,28.0,Krasa1.jpg,26.0,1.0,-1.0,0.0,chosen,0.0,1.0,1006.0,-0.32373629043428154,6.0,2075.0,-0.24715416621307182
309,Exp1,d11032021,JY6WO,outcome_evaluation,29.0,0.0,52.0,Picaa1.jpg,37.0,1.0,-1.0,0.0,chosen,0.0,1.0,631.0,-0.6610787257600351,6.0,1513.0,-0.9285406828269861
310,Exp1,d11032021,JY6WO,outcome_evaluation,30.0,0.0,7.0,Pica1n.jpg,50.0,1.0,1.0,0.0,chosen,1.0,1.0,732.0,-0.5702211631789655,6.0,2448.0,0.20508279232249763
311,Exp1,d11032021,JY6WO,outcome_evaluation,31.0,1.0,40.0,Krab1n.jpg,61.0,1.0,1.0,0.0,chosen,1.0,1.0,1389.0,0.020802783511754807,6.0,1447.0,-1.0085611634257732
312,Exp1,d11032021,JY6WO,outcome_evaluation,32.0,0.0,58.0,Mackc1.jpg,35.0,1.0,-1.0,0.0,chosen,0.0,1.0,771.0,-0.5351375499050871,6.0,1554.0,-0.8788309903338002
313,Exp1,d11032021,JY6WO,outcome_evaluation,33.0,1.0,53.0,Gorka1.jpg,30.0,0.0,1.0,0.0,unchosen,0.0,0.0,751.0,-0.553129146455794,3.0,2429.0,0.18204659336224072
314,Exp1,d11032021,JY6WO,outcome_evaluation,34.0,1.0,14.0,Kupkb1.jpg,31.0,,1.0,1.0,novel,0.0,0.0,736.0,-0.5666228438688241,4.0,1668.0,-0.7406137965722588
315,Exp1,d11032021,JY6WO,outcome_evaluation,35.0,1.0,54.0,Kupka1.jpg,18.0,1.0,-1.0,0.0,chosen,0.0,1.0,856.0,-0.45867326456458296,6.0,1614.0,-0.8060850988803574
316,Exp1,d11032021,JY6WO,outcome_evaluation,36.0,1.0,12.0,Kupkc1.jpg,23.0,0.0,1.0,0.0,unchosen,1.0,1.0,783.0,-0.524342591974663,4.0,3147.0,1.0525724277551063
317,Exp1,d11032021,JY6WO,outcome_evaluation,37.0,0.0,32.0,Macka1.jpg,23.0,1.0,1.0,0.0,chosen,1.0,1.0,748.0,-0.5558278859384,6.0,1618.0,-0.8012353727834611
318,Exp1,d11032021,JY6WO,outcome_evaluation,38.0,0.0,55.0,Lewic1.jpg,26.0,0.0,-1.0,0.0,unchosen,0.0,1.0,787.0,-0.5207442726645216,3.0,1744.0,-0.6484690007312313
319,Exp1,d11032021,JY6WO,outcome_evaluation,39.0,1.0,9.0,Lassc1.jpg,16.0,0.0,-1.0,0.0,unchosen,0.0,1.0,660.0,-0.6349909107615102,3.0,1415.0,-1.0473589722009427
320,Exp1,d11032021,pxiIK,outcome_evaluation,0.0,0.0,42.0,Picc1n.jpg,66.0,1.0,1.0,0.0,chosen,1.0,1.0,2060.0,-0.1781336888752167,5.0,2699.0,-0.08093125856391152
321,Exp1,d11032021,pxiIK,outcome_evaluation,1.0,1.0,18.0,Krasb1.jpg,70.0,0.0,1.0,0.0,unchosen,0.0,0.0,1118.0,-0.22335174218244372,4.0,2503.0,-0.09711462039065333
322,Exp1,d11032021,pxiIK,outcome_evaluation,2.0,0.0,51.0,Gora1n.jpg,62.0,0.0,1.0,0.0,unchosen,1.0,1.0,733.0,-0.24183258137913416,4.0,3164.0,-0.042537058311692424
323,Exp1,d11032021,pxiIK,outcome_evaluation,3.0,0.0,25.0,Clifa1.jpg,58.0,0.0,1.0,0.0,unchosen,0.0,0.0,868.0,-0.23535228711535958,4.0,2559.0,-0.09249080272586996
324,Exp1,d11032021,pxiIK,outcome_evaluation,4.0,0.0,36.0,Gorkf1.jpg,66.0,1.0,1.0,0.0,chosen,1.0,1.0,907.0,-0.2334802021058247,6.0,2102.0,-0.1302244575974057
325,Exp1,d11032021,pxiIK,outcome_evaluation,5.0,0.0,19.0,Macc1n.jpg,66.0,1.0,1.0,0.0,chosen,1.0,1.0,995.0,-0.22925601028943832,6.0,1416.0,-0.18686622399100206
326,Exp1,d11032021,pxiIK,outcome_evaluation,6.0,1.0,11.0,Wdekb1.jpg,68.0,,1.0,1.0,novel,0.0,0.0,1020.0,-0.22805595579614674,3.0,1499.0,-0.1800130656664124
327,Exp1,d11032021,pxiIK,outcome_evaluation,7.0,1.0,29.0,Clifb1.jpg,67.0,1.0,1.0,0.0,chosen,1.0,1.0,1010.0,-0.22853597759346336,6.0,78307.0,6.161883134274327
328,Exp1,d11032021,pxiIK,outcome_evaluation,8.0,1.0,54.0,Kupka1.jpg,51.0,1.0,1.0,0.0,chosen,1.0,1.0,884.0,-0.23458425223965296,6.0,1358.0,-0.19165517800095624
329,Exp1,d11032021,pxiIK,outcome_evaluation,9.0,1.0,22.0,Macb1n.jpg,66.0,,1.0,1.0,novel,1.0,1.0,1777.0,-0.19171830573927745,4.0,1998.0,-0.13881154754628913
330,Exp1,d11032021,pxiIK,outcome_evaluation,10.0,1.0,24.0,Dekoa1.jpg,52.0,1.0,-1.0,0.0,chosen,0.0,1.0,786.0,-0.239288465853356,6.0,1586.0,-0.1728296346514811
331,Exp1,d11032021,pxiIK,outcome_evaluation,11.0,0.0,16.0,Lewa1n.jpg,69.0,0.0,-1.0,0.0,unchosen,1.0,0.0,996.0,-0.22920800810970665,4.0,1686.0,-0.16457281739293936
332,Exp1,d11032021,pxiIK,outcome_evaluation,12.0,0.0,52.0,Picaa1.jpg,58.0,1.0,-1.0,0.0,chosen,0.0,1.0,1407.0,-0.20947911223999297,6.0,1793.0,-0.15573802292629968
333,Exp1,d11032021,pxiIK,outcome_evaluation,13.0,0.0,49.0,Hinda1.jpg,65.0,0.0,-1.0,0.0,unchosen,1.0,0.0,872.0,-0.23516027839643294,4.0,1431.0,-0.1856277014022208
334,Exp1,d11032021,pxiIK,outcome_evaluation,14.0,1.0,3.0,Fogeg1.jpg,50.0,,1.0,1.0,novel,1.0,1.0,819.0,-0.2377043939222111,4.0,1963.0,-0.14170143358677872
335,Exp1,d11032021,pxiIK,outcome_evaluation,15.0,1.0,23.0,Lewib1.jpg,69.0,,1.0,1.0,novel,1.0,1.0,2095.0,-0.17645361258460845,4.0,1429.0,-0.1857928377473916
336,Exp1,d11032021,pxiIK,outcome_evaluation,16.0,1.0,26.0,Clib1n.jpg,58.0,0.0,-1.0,0.0,unchosen,1.0,0.0,585.0,-0.24893690397942037,4.0,1450.0,-0.18405890612309786
337,Exp1,d11032021,pxiIK,outcome_evaluation,17.0,0.0,38.0,Lasc1n.jpg,40.0,0.0,1.0,0.0,unchosen,1.0,1.0,756.0,-0.24072853124530588,4.0,1973.0,-0.14087575186092455
338,Exp1,d11032021,pxiIK,outcome_evaluation,18.0,1.0,15.0,Clia1n.jpg,40.0,,-1.0,1.0,novel,0.0,1.0,2045.0,-0.17885372157119164,4.0,1257.0,-0.1999945634320834
339,Exp1,d11032021,pxiIK,outcome_evaluation,19.0,0.0,9.0,Lassc1.jpg,35.0,0.0,-1.0,0.0,unchosen,1.0,0.0,993.0,-0.22935201464890165,4.0,1315.0,-0.1952056094221292
340,Exp1,d11032021,pxiIK,outcome_evaluation,20.0,0.0,55.0,Lewic1.jpg,64.0,0.0,1.0,0.0,unchosen,1.0,1.0,708.0,-0.24303263587242574,4.0,1396.0,-0.18851758744271038
341,Exp1,d11032021,pxiIK,outcome_evaluation,21.0,1.0,45.0,Klia1n.jpg,36.0,1.0,-1.0,0.0,chosen,0.0,1.0,1167.0,-0.2209996353755922,6.0,1349.0,-0.19239829155422503
342,Exp1,d11032021,pxiIK,outcome_evaluation,22.0,1.0,7.0,Pica1n.jpg,61.0,1.0,1.0,0.0,chosen,1.0,1.0,492.0,-0.2534011066944651,6.0,1421.0,-0.18645338312807497
343,Exp1,d11032021,pxiIK,outcome_evaluation,23.0,1.0,34.0,Monb1n.jpg,37.0,1.0,-1.0,0.0,chosen,0.0,1.0,844.0,-0.23650433942891952,6.0,1819.0,-0.15359125043907884
344,Exp1,d11032021,pxiIK,outcome_evaluation,24.0,1.0,40.0,Krab1n.jpg,63.0,0.0,1.0,0.0,unchosen,1.0,1.0,1025.0,-0.2278159448974884,5.0,1452.0,-0.183893769777927
345,Exp1,d11032021,pxiIK,outcome_evaluation,25.0,1.0,59.0,Kraa1n.jpg,69.0,1.0,-1.0,0.0,chosen,0.0,1.0,3228.0,-0.1220671429486337,6.0,1894.0,-0.14739863749517254
346,Exp1,d11032021,pxiIK,outcome_evaluation,26.0,1.0,21.0,Lewb1n.jpg,69.0,0.0,1.0,0.0,unchosen,1.0,1.0,79374.0,3.5331068348986157,4.0,1649.0,-0.1676278397785998
347,Exp1,d11032021,pxiIK,outcome_evaluation,27.0,1.0,35.0,Wdeka1.jpg,67.0,0.0,1.0,0.0,unchosen,1.0,1.0,1504.0,-0.20482290080602158,4.0,2556.0,-0.09273850724362621
348,Exp1,d11032021,pxiIK,outcome_evaluation,28.0,0.0,4.0,Mackb1.jpg,36.0,1.0,-1.0,0.0,chosen,1.0,0.0,1334.0,-0.21298327136040437,4.0,1391.0,-0.18893042830563747
349,Exp1,d11032021,pxiIK,outcome_evaluation,29.0,0.0,13.0,Picak1.jpg,66.0,1.0,-1.0,0.0,chosen,0.0,1.0,578.0,-0.249272919237542,6.0,1463.0,-0.18298551987948744
350,Exp1,d11032021,pxiIK,outcome_evaluation,30.0,1.0,41.0,Vincb1.jpg,62.0,0.0,-1.0,0.0,unchosen,1.0,0.0,836.0,-0.23688835686677281,4.0,1330.0,-0.19396708683334796
351,Exp1,d11032021,pxiIK,outcome_evaluation,31.0,0.0,48.0,Picb1n.jpg,65.0,1.0,-1.0,0.0,chosen,1.0,0.0,493.0,-0.2533531045147334,1.0,2651.0,-0.08489453084801156
352,Exp1,d11032021,pxiIK,outcome_evaluation,32.0,1.0,43.0,Picac1.jpg,67.0,1.0,1.0,0.0,chosen,1.0,1.0,975.0,-0.2302160538840716,6.0,2132.0,-0.1277474124198432
353,Exp1,d11032021,pxiIK,outcome_evaluation,33.0,1.0,58.0,Mackc1.jpg,50.0,,-1.0,1.0,novel,1.0,0.0,970.0,-0.2304560647827299,4.0,1503.0,-0.17968279297607073
354,Exp1,d11032021,pxiIK,outcome_evaluation,34.0,1.0,28.0,Krasa1.jpg,36.0,0.0,-1.0,0.0,unchosen,0.0,1.0,840.0,-0.23669634814784615,3.0,1801.0,-0.15507747754561635
355,Exp1,d11032021,pxiIK,outcome_evaluation,35.0,0.0,44.0,Lassf1.jpg,69.0,0.0,-1.0,0.0,unchosen,0.0,1.0,1681.0,-0.19632651499351716,4.0,1270.0,-0.198921177188473
356,Exp1,d11032021,pxiIK,outcome_evaluation,36.0,0.0,17.0,Picab1.jpg,65.0,1.0,1.0,0.0,chosen,1.0,1.0,938.0,-0.23199213453414314,6.0,1754.0,-0.15895818165713096
357,Exp1,d11032021,pxiIK,outcome_evaluation,37.0,1.0,31.0,Maca1n.jpg,65.0,,-1.0,1.0,novel,1.0,0.0,109084.0,4.9592515947263385,4.0,1761.0,-0.15838020444903306
358,Exp1,d11032021,pxiIK,outcome_evaluation,38.0,1.0,56.0,Luisc1.jpg,35.0,0.0,-1.0,0.0,unchosen,1.0,0.0,1208.0,-0.219031546006594,5.0,1343.0,-0.1928937005897375
359,Exp1,d11032021,pxiIK,outcome_evaluation,39.0,1.0,12.0,Kupkc1.jpg,65.0,,-1.0,1.0,novel,1.0,0.0,833.0,-0.2370323634059678,4.0,1744.0,-0.15978386338298514
360,Exp1,d11032021,UiTO9,outcome_evaluation,0.0,0.0,53.0,Gorka1.jpg,64.0,1.0,-1.0,0.0,chosen,0.0,1.0,2003.0,-0.15520637346239838,3.0,20368.0,6.0124038685331715
361,Exp1,d11032021,UiTO9,outcome_evaluation,1.0,1.0,30.0,Lasse1.jpg,74.0,,-1.0,1.0,novel,0.0,1.0,1579.0,-0.2835987300091877,5.0,3268.0,-0.03787616830076456
362,Exp1,d11032021,UiTO9,outcome_evaluation,2.0,0.0,19.0,Macc1n.jpg,75.0,1.0,1.0,0.0,chosen,1.0,1.0,1515.0,-0.3029787083558729,6.0,2685.0,-0.24415179762674027
363,Exp1,d11032021,UiTO9,outcome_evaluation,3.0,1.0,12.0,Kupkc1.jpg,61.0,1.0,-1.0,0.0,chosen,0.0,1.0,20830.0,5.545838194241384,3.0,3066.0,-0.10934731259552802
364,Exp1,d11032021,UiTO9,outcome_evaluation,4.0,0.0,16.0,Lewa1n.jpg,68.0,0.0,1.0,0.0,unchosen,0.0,0.0,1167.0,-0.4083573406159736,5.0,2593.0,-0.27670301185999885
365,Exp1,d11032021,UiTO9,outcome_evaluation,5.0,0.0,10.0,Stera1.jpg,63.0,0.0,-1.0,0.0,unchosen,1.0,0.0,6443.0,1.1892796243388866,4.0,2428.0,-0.3350829069522562
366,Exp1,d11032021,UiTO9,outcome_evaluation,6.0,0.0,13.0,Picak1.jpg,62.0,1.0,1.0,0.0,chosen,1.0,1.0,1196.0,-0.3995757879276319,4.0,2478.0,-0.31739202965157215
367,Exp1,d11032021,UiTO9,outcome_evaluation,7.0,0.0,37.0,Mondb1.jpg,68.0,0.0,1.0,0.0,unchosen,0.0,0.0,1563.0,-0.28844372459585904,2.0,4304.0,0.3286788093694084
368,Exp1,d11032021,UiTO9,outcome_evaluation,8.0,1.0,55.0,Lewic1.jpg,76.0,,1.0,1.0,novel,1.0,1.0,1928.0,-0.17791728558742007,6.0,2755.0,-0.21938456940578263
369,Exp1,d11032021,UiTO9,outcome_evaluation,9.0,1.0,46.0,Deka1n.jpg,54.0,0.0,-1.0,0.0,unchosen,0.0,1.0,1579.0,-0.2835987300091877,5.0,4339.0,0.34106242347988724
370,Exp1,d11032021,UiTO9,outcome_evaluation,10.0,1.0,3.0,Fogeg1.jpg,76.0,,-1.0,1.0,novel,1.0,0.0,1261.0,-0.37989299741927973,6.0,2709.0,-0.23566017652241195
371,Exp1,d11032021,UiTO9,outcome_evaluation,11.0,0.0,38.0,Lasc1n.jpg,59.0,0.0,1.0,0.0,unchosen,0.0,0.0,1275.0,-0.37565362715594236,4.0,3767.0,0.138678787160062
372,Exp1,d11032021,UiTO9,outcome_evaluation,12.0,1.0,41.0,Vincb1.jpg,64.0,,1.0,1.0,novel,0.0,0.0,1517.0,-0.302373084032539,3.0,2871.0,-0.1783417340681957
373,Exp1,d11032021,UiTO9,outcome_evaluation,13.0,1.0,24.0,Dekoa1.jpg,70.0,1.0,-1.0,0.0,chosen,1.0,0.0,2385.0,-0.039532127705621166,4.0,2639.0,-0.26042740474336956
374,Exp1,d11032021,UiTO9,outcome_evaluation,14.0,1.0,33.0,Kupc1n.jpg,53.0,,1.0,1.0,novel,1.0,1.0,2351.0,-0.04982774120229767,5.0,2338.0,-0.3669264860934874
375,Exp1,d11032021,UiTO9,outcome_evaluation,15.0,1.0,15.0,Clia1n.jpg,60.0,0.0,1.0,0.0,unchosen,1.0,1.0,1334.0,-0.357787709617592,5.0,2568.0,-0.2855484505103409
376,Exp1,d11032021,UiTO9,outcome_evaluation,16.0,1.0,59.0,Kraa1n.jpg,68.0,1.0,1.0,0.0,chosen,1.0,1.0,1563.0,-0.28844372459585904,5.0,2677.0,-0.24698233799484973
377,Exp1,d11032021,UiTO9,outcome_evaluation,17.0,0.0,49.0,Hinda1.jpg,63.0,1.0,1.0,0.0,chosen,1.0,1.0,1371.0,-0.3465836596359146,6.0,2569.0,-0.2851946329643272
378,Exp1,d11032021,UiTO9,outcome_evaluation,18.0,1.0,27.0,Vinb1n.jpg,76.0,0.0,1.0,0.0,unchosen,1.0,1.0,1236.0,-0.38746330146095365,5.0,5078.0,0.6025335899839971
379,Exp1,d11032021,UiTO9,outcome_evaluation,19.0,0.0,18.0,Krasb1.jpg,69.0,1.0,1.0,0.0,chosen,1.0,1.0,1952.0,-0.17064979370741312,3.0,2686.0,-0.2437979800807266
380,Exp1,d11032021,UiTO9,outcome_evaluation,20.0,0.0,47.0,Kupkd1.jpg,65.0,0.0,-1.0,0.0,unchosen,1.0,0.0,4263.0,0.5291491119049223,5.0,2688.0,-0.24309034498869922
381,Exp1,d11032021,UiTO9,outcome_evaluation,21.0,1.0,14.0,Kupkb1.jpg,63.0,0.0,1.0,0.0,unchosen,0.0,0.0,475.0,-0.6179033564895072,3.0,2697.0,-0.2399059870745761
382,Exp1,d11032021,UiTO9,outcome_evaluation,22.0,1.0,4.0,Mackb1.jpg,60.0,1.0,-1.0,0.0,chosen,0.0,1.0,3434.0,0.2781178298830157,3.0,2948.0,-0.15109778302514232
383,Exp1,d11032021,UiTO9,outcome_evaluation,23.0,1.0,28.0,Krasa1.jpg,69.0,1.0,-1.0,0.0,chosen,0.0,1.0,6047.0,1.069366008318772,3.0,2817.0,-0.19744788155293444
384,Exp1,d11032021,UiTO9,outcome_evaluation,24.0,0.0,43.0,Picac1.jpg,72.0,1.0,-1.0,0.0,chosen,0.0,1.0,4545.0,0.6145421414950039,3.0,3014.0,-0.1277458249882394
385,Exp1,d11032021,UiTO9,outcome_evaluation,25.0,0.0,25.0,Clifa1.jpg,55.0,1.0,-1.0,0.0,chosen,1.0,0.0,1492.0,-0.3099433880742129,4.0,2546.0,-0.29333243652264185
386,Exp1,d11032021,UiTO9,outcome_evaluation,26.0,0.0,31.0,Maca1n.jpg,71.0,0.0,-1.0,0.0,unchosen,1.0,0.0,2602.0,0.026178111376108294,4.0,2923.0,-0.15994322167548433
387,Exp1,d11032021,UiTO9,outcome_evaluation,27.0,1.0,9.0,Lassc1.jpg,57.0,0.0,-1.0,0.0,unchosen,1.0,0.0,3379.0,0.26146316099133315,4.0,2322.0,-0.3725875668297063
388,Exp1,d11032021,UiTO9,outcome_evaluation,28.0,1.0,8.0,Klina1.jpg,63.0,1.0,1.0,0.0,chosen,0.0,0.0,5277.0,0.8362006438352158,4.0,3232.0,-0.050613599957257054
389,Exp1,d11032021,UiTO9,outcome_evaluation,29.0,0.0,17.0,Picab1.jpg,64.0,0.0,1.0,0.0,unchosen,0.0,0.0,597.0,-0.5809602727661386,4.0,2966.0,-0.14472906719689607
390,Exp1,d11032021,UiTO9,outcome_evaluation,30.0,1.0,42.0,Picc1n.jpg,63.0,1.0,1.0,0.0,chosen,1.0,1.0,1264.0,-0.3789845609342789,3.0,2418.0,-0.33862108241239297
391,Exp1,d11032021,UiTO9,outcome_evaluation,31.0,0.0,34.0,Monb1n.jpg,57.0,0.0,-1.0,0.0,unchosen,0.0,1.0,273.0,-0.6790714131462323,4.0,3841.0,0.16486128556507434
392,Exp1,d11032021,UiTO9,outcome_evaluation,32.0,0.0,57.0,Lewc1n.jpg,71.0,1.0,-1.0,0.0,chosen,1.0,0.0,751.0,-0.5343271998694273,4.0,2600.0,-0.27422628903790314
393,Exp1,d11032021,UiTO9,outcome_evaluation,33.0,1.0,48.0,Picb1n.jpg,66.0,1.0,1.0,0.0,chosen,1.0,1.0,745.0,-0.5361440728394291,5.0,2523.0,-0.3014702400809565
394,Exp1,d11032021,UiTO9,outcome_evaluation,34.0,1.0,7.0,Pica1n.jpg,50.0,0.0,1.0,0.0,unchosen,0.0,0.0,1298.0,-0.3686889474376024,4.0,2647.0,-0.25759686437526014
395,Exp1,d11032021,UiTO9,outcome_evaluation,35.0,1.0,6.0,Wdekc1.jpg,71.0,0.0,-1.0,0.0,unchosen,0.0,1.0,1424.0,-0.33053461506756593,3.0,4078.0,0.24871604397031663
396,Exp1,d11032021,UiTO9,outcome_evaluation,36.0,1.0,0.0,Gorkc1.jpg,50.0,,-1.0,1.0,novel,0.0,1.0,1686.0,-0.25119782871082347,4.0,2554.0,-0.2905018961545324
397,Exp1,d11032021,UiTO9,outcome_evaluation,37.0,1.0,26.0,Clib1n.jpg,71.0,0.0,-1.0,0.0,unchosen,0.0,1.0,1075.0,-0.43621605948933356,5.0,3306.0,-0.0244311015522447
398,Exp1,d11032021,UiTO9,outcome_evaluation,38.0,1.0,58.0,Mackc1.jpg,60.0,,1.0,1.0,novel,0.0,0.0,2360.0,-0.047102431747295066,4.0,2510.0,-0.30606986817913434
399,Exp1,d11032021,UiTO9,outcome_evaluation,39.0,1.0,45.0,Klia1n.jpg,62.0,,-1.0,1.0,novel,0.0,1.0,1587.0,-0.28117623271585207,4.0,2186.0,-0.42070675308756683
400,Exp1,d11032021,MJ2Dl,outcome_evaluation,0.0,0.0,48.0,Picb1n.jpg,75.0,0.0,1.0,0.0,unchosen,1.0,1.0,1535.0,0.9112359667434783,5.0,5406.0,2.3774234358773914
401,Exp1,d11032021,MJ2Dl,outcome_evaluation,1.0,0.0,31.0,Maca1n.jpg,36.0,1.0,1.0,0.0,chosen,1.0,1.0,642.0,-1.1018352641351816,6.0,3175.0,0.17049074382568838
402,Exp1,d11032021,MJ2Dl,outcome_evaluation,2.0,0.0,22.0,Macb1n.jpg,55.0,0.0,1.0,0.0,unchosen,0.0,0.0,988.0,-0.3218546976357232,4.0,5305.0,2.277512991279802
403,Exp1,d11032021,MJ2Dl,outcome_evaluation,3.0,0.0,8.0,Klina1.jpg,43.0,1.0,1.0,0.0,chosen,1.0,1.0,621.0,-1.149175125107692,6.0,2491.0,-0.5061304849342241
404,Exp1,d11032021,MJ2Dl,outcome_evaluation,4.0,1.0,12.0,Kupkc1.jpg,38.0,0.0,-1.0,0.0,unchosen,1.0,0.0,1473.0,0.7714706629198759,4.0,3331.0,0.32480786617444035
405,Exp1,d11032021,MJ2Dl,outcome_evaluation,5.0,1.0,40.0,Krab1n.jpg,54.0,1.0,-1.0,0.0,chosen,0.0,1.0,858.0,-0.6149109798465023,6.0,3223.0,0.21797293531761205
406,Exp1,d11032021,MJ2Dl,outcome_evaluation,6.0,1.0,54.0,Kupka1.jpg,69.0,1.0,-1.0,0.0,chosen,0.0,1.0,799.0,-0.7479134463883176,6.0,1997.0,-0.9948013723719387
407,Exp1,d11032021,MJ2Dl,outcome_evaluation,7.0,0.0,58.0,Mackc1.jpg,93.0,1.0,-1.0,0.0,chosen,0.0,1.0,766.0,-0.8223046564879769,6.0,1921.0,-1.0699815089008178
408,Exp1,d11032021,MJ2Dl,outcome_evaluation,8.0,1.0,7.0,Pica1n.jpg,66.0,,1.0,1.0,novel,0.0,0.0,774.0,-0.8042704237365443,6.0,1961.0,-1.0304130159908815
409,Exp1,d11032021,MJ2Dl,outcome_evaluation,9.0,0.0,17.0,Picab1.jpg,40.0,1.0,-1.0,0.0,chosen,0.0,1.0,712.0,-0.9440357275601466,6.0,2080.0,-0.9126967495838206
410,Exp1,d11032021,MJ2Dl,outcome_evaluation,10.0,0.0,19.0,Macc1n.jpg,78.0,1.0,-1.0,0.0,chosen,0.0,1.0,1389.0,0.582111219029834,6.0,1952.0,-1.0393159268956171
411,Exp1,d11032021,MJ2Dl,outcome_evaluation,11.0,1.0,45.0,Klia1n.jpg,65.0,,-1.0,1.0,novel,1.0,0.0,1681.0,1.2403607144571225,6.0,3891.0,0.87876676691355
412,Exp1,d11032021,MJ2Dl,outcome_evaluation,12.0,0.0,25.0,Clifa1.jpg,60.0,0.0,1.0,0.0,unchosen,1.0,1.0,1070.0,-0.13700381193353947,5.0,2858.0,-0.1430895624855576
413,Exp1,d11032021,MJ2Dl,outcome_evaluation,13.0,1.0,16.0,Lewa1n.jpg,73.0,1.0,1.0,0.0,chosen,1.0,1.0,1007.0,-0.2790233948510709,6.0,2271.0,-0.7237571959388743
414,Exp1,d11032021,MJ2Dl,outcome_evaluation,14.0,1.0,34.0,Monb1n.jpg,69.0,0.0,1.0,0.0,unchosen,1.0,1.0,1722.0,1.3327861573082145,3.0,2947.0,-0.05504966576094911
415,Exp1,d11032021,MJ2Dl,outcome_evaluation,15.0,0.0,24.0,Dekoa1.jpg,80.0,1.0,-1.0,0.0,chosen,0.0,1.0,657.0,-1.0680210777262455,6.0,2481.0,-0.5160226081617082
416,Exp1,d11032021,MJ2Dl,outcome_evaluation,16.0,0.0,55.0,Lewic1.jpg,50.0,0.0,1.0,0.0,unchosen,1.0,1.0,1279.0,0.3341405186976363,4.0,3542.0,0.5335316662743549
417,Exp1,d11032021,MJ2Dl,outcome_evaluation,17.0,1.0,13.0,Picak1.jpg,36.0,,1.0,1.0,novel,0.0,0.0,996.0,-0.30382046488429065,5.0,4134.0,1.1191453613414137
418,Exp1,d11032021,MJ2Dl,outcome_evaluation,18.0,0.0,41.0,Vincb1.jpg,70.0,1.0,1.0,0.0,chosen,1.0,1.0,973.0,-0.3556688840446593,6.0,2493.0,-0.5041520602887273
419,Exp1,d11032021,MJ2Dl,outcome_evaluation,19.0,1.0,20.0,Gorc1n.jpg,55.0,0.0,1.0,0.0,unchosen,0.0,0.0,1618.0,1.098341131539591,6.0,3318.0,0.31194810597871103
420,Exp1,d11032021,MJ2Dl,outcome_evaluation,20.0,1.0,35.0,Wdeka1.jpg,95.0,1.0,-1.0,0.0,chosen,0.0,1.0,755.0,-0.8471017265211966,6.0,1963.0,-1.0284345913453845
421,Exp1,d11032021,MJ2Dl,outcome_evaluation,21.0,1.0,21.0,Lewb1n.jpg,82.0,1.0,1.0,0.0,chosen,1.0,1.0,643.0,-1.0995809850412526,6.0,2042.0,-0.9502868178482602
422,Exp1,d11032021,MJ2Dl,outcome_evaluation,22.0,1.0,32.0,Macka1.jpg,63.0,,1.0,1.0,novel,0.0,0.0,1123.0,-0.017527019955298727,2.0,6173.0,3.1361492874254218
423,Exp1,d11032021,MJ2Dl,outcome_evaluation,23.0,1.0,47.0,Kupkd1.jpg,77.0,1.0,1.0,0.0,chosen,1.0,1.0,943.0,-0.4232972568625314,6.0,2160.0,-0.8335597637639478
424,Exp1,d11032021,MJ2Dl,outcome_evaluation,24.0,0.0,38.0,Lasc1n.jpg,76.0,0.0,-1.0,0.0,unchosen,0.0,1.0,2584.0,3.275974736275073,1.0,2543.0,-0.4546914441513068
425,Exp1,d11032021,MJ2Dl,outcome_evaluation,25.0,1.0,6.0,Wdekc1.jpg,81.0,,-1.0,1.0,novel,1.0,0.0,2252.0,2.5275540770906217,4.0,3189.0,0.18433971634416613
426,Exp1,d11032021,MJ2Dl,outcome_evaluation,26.0,0.0,30.0,Lasse1.jpg,60.0,0.0,-1.0,0.0,unchosen,0.0,1.0,1214.0,0.18761237759224667,3.0,3521.0,0.5127582074966383
427,Exp1,d11032021,MJ2Dl,outcome_evaluation,27.0,0.0,52.0,Picaa1.jpg,71.0,0.0,-1.0,0.0,unchosen,1.0,0.0,848.0,-0.6374537707857931,1.0,3544.0,0.5355100909198517
428,Exp1,d11032021,MJ2Dl,outcome_evaluation,28.0,1.0,4.0,Mackb1.jpg,75.0,,1.0,1.0,novel,0.0,0.0,1012.0,-0.2677519993814255,2.0,3426.0,0.4187830368355393
429,Exp1,d11032021,MJ2Dl,outcome_evaluation,29.0,1.0,18.0,Krasb1.jpg,56.0,0.0,-1.0,0.0,unchosen,0.0,1.0,1468.0,0.7601992674502306,6.0,2761.0,-0.23904315779215338
430,Exp1,d11032021,MJ2Dl,outcome_evaluation,30.0,1.0,44.0,Lassf1.jpg,85.0,,-1.0,1.0,novel,0.0,1.0,1397.0,0.6001454517812665,5.0,2482.0,-0.5150333958389598
431,Exp1,d11032021,MJ2Dl,outcome_evaluation,31.0,1.0,26.0,Clib1n.jpg,82.0,1.0,1.0,0.0,chosen,1.0,1.0,903.0,-0.5134684206196942,6.0,2132.0,-0.8612577088009034
432,Exp1,d11032021,MJ2Dl,outcome_evaluation,32.0,1.0,3.0,Fogeg1.jpg,67.0,,-1.0,1.0,novel,0.0,1.0,1124.0,-0.015272740861369656,5.0,2151.0,-0.8424626746686835
433,Exp1,d11032021,MJ2Dl,outcome_evaluation,33.0,0.0,49.0,Hinda1.jpg,69.0,0.0,-1.0,0.0,unchosen,0.0,1.0,1034.0,-0.218157859314986,1.0,2785.0,-0.21530206204619154
434,Exp1,d11032021,MJ2Dl,outcome_evaluation,34.0,1.0,36.0,Gorkf1.jpg,55.0,0.0,1.0,0.0,unchosen,1.0,1.0,1428.0,0.6700281036930678,3.0,3060.0,0.05673132670962123
435,Exp1,d11032021,MJ2Dl,outcome_evaluation,35.0,1.0,14.0,Kupkb1.jpg,56.0,0.0,-1.0,0.0,unchosen,1.0,0.0,970.0,-0.3624317213264465,4.0,2552.0,-0.4457885332465711
436,Exp1,d11032021,MJ2Dl,outcome_evaluation,36.0,1.0,2.0,Dekob1.jpg,51.0,1.0,-1.0,0.0,chosen,0.0,1.0,580.0,-1.241600567958784,6.0,2230.0,-0.7643149011715591
437,Exp1,d11032021,MJ2Dl,outcome_evaluation,37.0,0.0,37.0,Mondb1.jpg,89.0,1.0,1.0,0.0,chosen,1.0,1.0,708.0,-0.953052843935863,6.0,2741.0,-0.2588274042471216
438,Exp1,d11032021,MJ2Dl,outcome_evaluation,38.0,1.0,42.0,Picc1n.jpg,85.0,0.0,-1.0,0.0,unchosen,1.0,0.0,1637.0,1.1411724343242435,3.0,4752.0,1.7304785767999311
439,Exp1,d11032021,MJ2Dl,outcome_evaluation,39.0,1.0,53.0,Gorka1.jpg,34.0,0.0,1.0,0.0,unchosen,0.0,0.0,1048.0,-0.186597951999979,2.0,3122.0,0.11806249072002264
440,Exp1,d11032021,52UGI,outcome_evaluation,0.0,0.0,53.0,Gorka1.jpg,59.0,0.0,1.0,0.0,unchosen,0.0,0.0,3575.0,5.347550161710901,3.0,2796.0,1.3846041364120028
441,Exp1,d11032021,52UGI,outcome_evaluation,1.0,1.0,8.0,Klina1.jpg,38.0,0.0,-1.0,0.0,unchosen,0.0,1.0,1475.0,1.0617138920802807,2.0,2013.0,0.39156998133016335
442,Exp1,d11032021,52UGI,outcome_evaluation,2.0,1.0,4.0,Mackb1.jpg,37.0,1.0,1.0,0.0,chosen,1.0,1.0,1458.0,1.0270190270404138,5.0,1835.0,0.16582275322726756
443,Exp1,d11032021,52UGI,outcome_evaluation,3.0,0.0,13.0,Picak1.jpg,33.0,0.0,-1.0,0.0,unchosen,0.0,1.0,816.0,-0.2832223468180901,2.0,2386.0,0.864624566062636
444,Exp1,d11032021,52UGI,outcome_evaluation,4.0,1.0,1.0,Lewia1.jpg,36.0,0.0,1.0,0.0,unchosen,0.0,0.0,1282.0,0.6678251301570857,3.0,2492.0,0.999058308640765
445,Exp1,d11032021,52UGI,outcome_evaluation,5.0,0.0,57.0,Lewc1n.jpg,35.0,0.0,1.0,0.0,unchosen,0.0,0.0,725.0,-0.46894191850208367,1.0,1824.0,0.1518720818276504
446,Exp1,d11032021,52UGI,outcome_evaluation,6.0,0.0,59.0,Kraa1n.jpg,65.0,1.0,-1.0,0.0,chosen,1.0,0.0,949.0,-0.011786049741484159,6.0,3563.0,2.3573464058216715
447,Exp1,d11032021,52UGI,outcome_evaluation,7.0,1.0,26.0,Clib1n.jpg,59.0,1.0,1.0,0.0,chosen,1.0,1.0,648.0,-0.6260892483885397,6.0,1235.0,-0.5951229594791227
448,Exp1,d11032021,52UGI,outcome_evaluation,8.0,1.0,55.0,Lewic1.jpg,44.0,,-1.0,1.0,novel,0.0,1.0,823.0,-0.26893622591932137,2.0,1503.0,-0.2552338744702684
449,Exp1,d11032021,52UGI,outcome_evaluation,9.0,1.0,6.0,Wdekc1.jpg,40.0,0.0,1.0,0.0,unchosen,0.0,0.0,968.0,0.026990564126602404,5.0,1190.0,-0.6521938879321021
450,Exp1,d11032021,52UGI,outcome_evaluation,10.0,1.0,28.0,Krasa1.jpg,41.0,1.0,-1.0,0.0,chosen,0.0,1.0,1204.0,0.5086369258565198,3.0,1817.0,0.14299438184607585
451,Exp1,d11032021,52UGI,outcome_evaluation,11.0,1.0,32.0,Macka1.jpg,68.0,,-1.0,1.0,novel,1.0,0.0,1399.0,0.9066074366079345,4.0,2043.0,0.42961726696548286
452,Exp1,d11032021,52UGI,outcome_evaluation,12.0,1.0,22.0,Macb1n.jpg,65.0,,1.0,1.0,novel,0.0,0.0,1136.0,0.369857465697052,3.0,1987.0,0.35859566711288643
453,Exp1,d11032021,52UGI,outcome_evaluation,13.0,1.0,25.0,Clifa1.jpg,41.0,1.0,1.0,0.0,chosen,0.0,0.0,1084.0,0.2637319961633414,2.0,1505.0,-0.25269738876124714
454,Exp1,d11032021,52UGI,outcome_evaluation,14.0,1.0,3.0,Fogeg1.jpg,35.0,1.0,1.0,0.0,chosen,1.0,1.0,674.0,-0.5730265136216844,3.0,1454.0,-0.3173777743412903
455,Exp1,d11032021,52UGI,outcome_evaluation,15.0,1.0,7.0,Pica1n.jpg,59.0,1.0,-1.0,0.0,chosen,0.0,1.0,759.0,-0.3995521884223498,3.0,1109.0,-0.7549215591474647
456,Exp1,d11032021,52UGI,outcome_evaluation,16.0,0.0,10.0,Stera1.jpg,64.0,1.0,1.0,0.0,chosen,1.0,1.0,1029.0,0.1514839033873014,4.0,1496.0,-0.26411157445184297
457,Exp1,d11032021,52UGI,outcome_evaluation,17.0,1.0,21.0,Lewb1n.jpg,61.0,,1.0,1.0,novel,0.0,0.0,881.0,-0.15056550990095185,4.0,1530.0,-0.22099131739848085
458,Exp1,d11032021,52UGI,outcome_evaluation,18.0,1.0,9.0,Lassc1.jpg,34.0,0.0,1.0,0.0,unchosen,0.0,0.0,838.0,-0.2383231097076741,4.0,1055.0,-0.8234066732910399
459,Exp1,d11032021,52UGI,outcome_evaluation,19.0,1.0,17.0,Picab1.jpg,59.0,,1.0,1.0,novel,1.0,1.0,635.0,-0.6526206157719674,5.0,1494.0,-0.2666480601608643
460,Exp1,d11032021,52UGI,outcome_evaluation,20.0,1.0,14.0,Kupkb1.jpg,59.0,0.0,-1.0,0.0,unchosen,1.0,0.0,1179.0,0.45761506550377423,3.0,999.0,-0.8944282731436363
461,Exp1,d11032021,52UGI,outcome_evaluation,21.0,0.0,39.0,Dekb1n.jpg,41.0,0.0,1.0,0.0,unchosen,0.0,0.0,877.0,-0.15872900755739114,4.0,1035.0,-0.8487715303812529
462,Exp1,d11032021,52UGI,outcome_evaluation,22.0,0.0,5.0,Kupb1n.jpg,61.0,0.0,-1.0,0.0,unchosen,1.0,0.0,652.0,-0.6179257507321004,3.0,999.0,-0.8944282731436363
463,Exp1,d11032021,52UGI,outcome_evaluation,23.0,1.0,40.0,Krab1n.jpg,62.0,0.0,-1.0,0.0,unchosen,0.0,1.0,683.0,-0.5546586438946961,4.0,994.0,-0.9007694874161896
464,Exp1,d11032021,52UGI,outcome_evaluation,24.0,0.0,41.0,Vincb1.jpg,65.0,1.0,1.0,0.0,chosen,1.0,1.0,597.0,-0.7301738435081405,3.0,936.0,-0.9743275729778073
465,Exp1,d11032021,52UGI,outcome_evaluation,25.0,0.0,52.0,Picaa1.jpg,52.0,1.0,-1.0,0.0,chosen,0.0,1.0,837.0,-0.24036398412178392,4.0,1364.0,-0.43151963124724885
466,Exp1,d11032021,52UGI,outcome_evaluation,26.0,1.0,27.0,Vinb1n.jpg,58.0,1.0,-1.0,0.0,chosen,1.0,0.0,773.0,-0.3709799466248123,5.0,1548.0,-0.19816294601728915
467,Exp1,d11032021,52UGI,outcome_evaluation,27.0,0.0,50.0,Gorke1.jpg,42.0,0.0,-1.0,0.0,unchosen,0.0,1.0,689.0,-0.5424133974100371,3.0,1236.0,-0.5938547166246121
468,Exp1,d11032021,52UGI,outcome_evaluation,28.0,0.0,24.0,Dekoa1.jpg,60.0,1.0,-1.0,0.0,chosen,1.0,0.0,1019.0,0.1310751592462032,4.0,1032.0,-0.8525762589447848
469,Exp1,d11032021,52UGI,outcome_evaluation,29.0,1.0,42.0,Picc1n.jpg,37.0,0.0,1.0,0.0,unchosen,0.0,0.0,834.0,-0.24648660736411337,4.0,1050.0,-0.8297478875635931
470,Exp1,d11032021,52UGI,outcome_evaluation,30.0,0.0,30.0,Lasse1.jpg,66.0,1.0,1.0,0.0,chosen,1.0,1.0,827.0,-0.2607727282628821,6.0,2369.0,0.843064437535955
471,Exp1,d11032021,52UGI,outcome_evaluation,31.0,0.0,51.0,Gora1n.jpg,37.0,0.0,-1.0,0.0,unchosen,0.0,1.0,558.0,-0.8097679456584235,3.0,1895.0,0.2419173244979066
472,Exp1,d11032021,52UGI,outcome_evaluation,32.0,0.0,47.0,Kupkd1.jpg,66.0,1.0,1.0,0.0,chosen,1.0,1.0,614.0,-0.6954789784682736,4.0,1758.0,0.06816805342994747
473,Exp1,d11032021,52UGI,outcome_evaluation,33.0,0.0,23.0,Lewib1.jpg,60.0,1.0,-1.0,0.0,chosen,0.0,1.0,946.0,-0.017908672983813618,6.0,893.0,-1.0288620157217652
474,Exp1,d11032021,52UGI,outcome_evaluation,34.0,1.0,36.0,Gorkf1.jpg,41.0,0.0,-1.0,0.0,unchosen,0.0,1.0,593.0,-0.7383373411645798,4.0,1304.0,-0.5076142025178879
475,Exp1,d11032021,52UGI,outcome_evaluation,35.0,1.0,49.0,Hinda1.jpg,54.0,1.0,-1.0,0.0,chosen,0.0,1.0,955.0,0.0004591967431747557,5.0,3869.0,2.745428719301931
476,Exp1,d11032021,52UGI,outcome_evaluation,36.0,0.0,56.0,Luisc1.jpg,38.0,0.0,1.0,0.0,unchosen,0.0,0.0,1017.0,0.12699341041798354,4.0,4273.0,3.2577988325242337
477,Exp1,d11032021,52UGI,outcome_evaluation,37.0,1.0,18.0,Krasb1.jpg,67.0,,-1.0,1.0,novel,0.0,1.0,745.0,-0.4281244302198873,5.0,1534.0,-0.21591834598043827
478,Exp1,d11032021,52UGI,outcome_evaluation,38.0,1.0,33.0,Kupc1n.jpg,65.0,,-1.0,1.0,novel,0.0,1.0,898.0,-0.11587064486108493,4.0,1545.0,-0.2019676745808211
479,Exp1,d11032021,52UGI,outcome_evaluation,39.0,1.0,44.0,Lassf1.jpg,62.0,,1.0,1.0,novel,1.0,1.0,540.0,-0.8465036851124003,4.0,1210.0,-0.626829030841889
480,Exp1,d11032021,gRBxs,outcome_evaluation,0.0,1.0,22.0,Macb1n.jpg,41.0,1.0,1.0,0.0,chosen,1.0,1.0,1800.0,-0.40331835457208093,4.0,5621.0,1.9310203961779582
481,Exp1,d11032021,gRBxs,outcome_evaluation,1.0,1.0,36.0,Gorkf1.jpg,37.0,,-1.0,1.0,novel,0.0,1.0,2176.0,-0.29239382220005755,4.0,9899.0,4.7996392883905825
482,Exp1,d11032021,gRBxs,outcome_evaluation,2.0,1.0,16.0,Lewa1n.jpg,40.0,0.0,-1.0,0.0,unchosen,0.0,1.0,1510.0,-0.4888718502845457,5.0,5048.0,1.5467944435744438
483,Exp1,d11032021,gRBxs,outcome_evaluation,3.0,1.0,37.0,Mondb1.jpg,38.0,,1.0,1.0,novel,0.0,0.0,4647.0,0.4365809636809789,3.0,3560.0,0.5490139593265746
484,Exp1,d11032021,gRBxs,outcome_evaluation,4.0,1.0,52.0,Picaa1.jpg,39.0,0.0,1.0,0.0,unchosen,1.0,1.0,3400.0,0.06870093211738015,5.0,3051.0,0.20770329636813006
485,Exp1,d11032021,gRBxs,outcome_evaluation,5.0,1.0,18.0,Krasb1.jpg,38.0,,-1.0,1.0,novel,0.0,1.0,4256.0,0.32123125049624185,4.0,2060.0,-0.4568131417297453
486,Exp1,d11032021,gRBxs,outcome_evaluation,6.0,0.0,10.0,Stera1.jpg,45.0,0.0,-1.0,0.0,unchosen,1.0,0.0,2510.0,-0.19385979610363258,4.0,2618.0,-0.08264546013679429
487,Exp1,d11032021,gRBxs,outcome_evaluation,7.0,0.0,35.0,Wdeka1.jpg,38.0,1.0,1.0,0.0,chosen,1.0,1.0,1190.0,-0.583275707622438,6.0,2373.0,-0.24693055330932653
488,Exp1,d11032021,gRBxs,outcome_evaluation,8.0,1.0,58.0,Mackc1.jpg,44.0,0.0,-1.0,0.0,unchosen,0.0,1.0,3569.0,0.11855796927395448,3.0,2115.0,-0.41993281469101357
489,Exp1,d11032021,gRBxs,outcome_evaluation,9.0,1.0,2.0,Dekob1.jpg,40.0,,-1.0,1.0,novel,1.0,0.0,3510.0,0.10115225807728061,5.0,2074.0,-0.4474254221198863
490,Exp1,d11032021,gRBxs,outcome_evaluation,10.0,1.0,1.0,Lewia1.jpg,39.0,0.0,-1.0,0.0,unchosen,1.0,0.0,2771.0,-0.11686164996241423,4.0,2548.0,-0.1295840581860892
491,Exp1,d11032021,gRBxs,outcome_evaluation,11.0,1.0,33.0,Kupc1n.jpg,35.0,,-1.0,1.0,novel,1.0,0.0,9877.0,1.9794940070471547,5.0,3363.0,0.4169153333878446
492,Exp1,d11032021,gRBxs,outcome_evaluation,12.0,1.0,14.0,Kupkb1.jpg,43.0,1.0,1.0,0.0,chosen,1.0,1.0,1184.0,-0.5850457799475234,6.0,1631.0,-0.7444796926318528
493,Exp1,d11032021,gRBxs,outcome_evaluation,13.0,0.0,29.0,Clifb1.jpg,37.0,0.0,1.0,0.0,unchosen,0.0,0.0,1842.0,-0.3909278482964826,3.0,1678.0,-0.7129637767987548
494,Exp1,d11032021,gRBxs,outcome_evaluation,14.0,0.0,53.0,Gorka1.jpg,42.0,0.0,-1.0,0.0,unchosen,0.0,1.0,3085.0,-0.024227864949607495,4.0,2333.0,-0.27375260933749507
495,Exp1,d11032021,gRBxs,outcome_evaluation,15.0,0.0,13.0,Picak1.jpg,39.0,1.0,1.0,0.0,chosen,1.0,1.0,1261.0,-0.5623298517755931,6.0,3262.0,0.34918964191671903
496,Exp1,d11032021,gRBxs,outcome_evaluation,16.0,1.0,56.0,Luisc1.jpg,36.0,,1.0,1.0,novel,0.0,0.0,20327.0,5.062369973237697,4.0,3402.0,0.4430668380153089
497,Exp1,d11032021,gRBxs,outcome_evaluation,17.0,1.0,25.0,Clifa1.jpg,45.0,1.0,-1.0,0.0,chosen,0.0,1.0,1222.0,-0.5738353218886487,6.0,2419.0,-0.21608518887693273
498,Exp1,d11032021,gRBxs,outcome_evaluation,18.0,0.0,21.0,Lewb1n.jpg,43.0,1.0,-1.0,0.0,chosen,0.0,1.0,4017.0,0.2507233695470036,6.0,1844.0,-0.6016522442818554
499,Exp1,d11032021,gRBxs,outcome_evaluation,19.0,1.0,43.0,Picac1.jpg,40.0,1.0,-1.0,0.0,chosen,0.0,1.0,1103.0,-0.6089417563361774,6.0,2978.0,0.15875304411672247
500,Exp1,d11032021,gRBxs,outcome_evaluation,20.0,1.0,26.0,Clib1n.jpg,44.0,1.0,-1.0,0.0,chosen,0.0,1.0,1377.0,-0.5281084534906072,5.0,1943.0,-0.5352676556121382
501,Exp1,d11032021,gRBxs,outcome_evaluation,21.0,0.0,15.0,Clia1n.jpg,44.0,1.0,-1.0,0.0,chosen,0.0,1.0,957.0,-0.6520135162465908,5.0,2742.0,0.00050291355052816
502,Exp1,d11032021,gRBxs,outcome_evaluation,22.0,1.0,27.0,Vinb1n.jpg,38.0,0.0,1.0,0.0,unchosen,1.0,1.0,2495.0,-0.19828497691634625,4.0,2074.0,-0.4474254221198863
503,Exp1,d11032021,gRBxs,outcome_evaluation,23.0,0.0,46.0,Deka1n.jpg,42.0,0.0,-1.0,0.0,unchosen,0.0,1.0,3397.0,0.06781589595483742,4.0,3499.0,0.5081103238836175
504,Exp1,d11032021,gRBxs,outcome_evaluation,24.0,0.0,28.0,Krasa1.jpg,40.0,0.0,1.0,0.0,unchosen,0.0,0.0,1839.0,-0.3918128844590253,6.0,1272.0,-0.9852076454846653
505,Exp1,d11032021,gRBxs,outcome_evaluation,25.0,0.0,44.0,Lassf1.jpg,43.0,1.0,-1.0,0.0,chosen,0.0,1.0,3547.0,0.11206770408197439,4.0,1882.0,-0.5761712910550952
506,Exp1,d11032021,gRBxs,outcome_evaluation,26.0,0.0,51.0,Gora1n.jpg,41.0,1.0,1.0,0.0,chosen,1.0,1.0,740.0,-0.7160311320038488,6.0,3073.0,0.22245542718362274
507,Exp1,d11032021,gRBxs,outcome_evaluation,27.0,0.0,31.0,Maca1n.jpg,41.0,1.0,-1.0,0.0,chosen,0.0,1.0,2572.0,-0.17556904874441595,4.0,2449.0,-0.1959686468558063
508,Exp1,d11032021,gRBxs,outcome_evaluation,28.0,0.0,41.0,Vincb1.jpg,39.0,0.0,-1.0,0.0,unchosen,1.0,0.0,1705.0,-0.4313444997192677,4.0,1485.0,-0.8423801971346679
509,Exp1,d11032021,gRBxs,outcome_evaluation,29.0,1.0,0.0,Gorkc1.jpg,35.0,1.0,1.0,0.0,chosen,1.0,1.0,1191.0,-0.582980695568257,6.0,1385.0,-0.9094353372050892
510,Exp1,d11032021,gRBxs,outcome_evaluation,30.0,1.0,17.0,Picab1.jpg,41.0,1.0,-1.0,0.0,chosen,0.0,1.0,3221.0,0.015893774418996698,4.0,2001.0,-0.4963756743712939
511,Exp1,d11032021,gRBxs,outcome_evaluation,31.0,0.0,24.0,Dekoa1.jpg,38.0,0.0,1.0,0.0,unchosen,0.0,0.0,1266.0,-0.5608547915046885,6.0,2835.0,0.06286419381601999
512,Exp1,d11032021,gRBxs,outcome_evaluation,32.0,1.0,39.0,Dekb1n.jpg,38.0,0.0,1.0,0.0,unchosen,0.0,0.0,2075.0,-0.3221900396723298,3.0,2276.0,-0.3119740391776352
513,Exp1,d11032021,gRBxs,outcome_evaluation,33.0,1.0,30.0,Lasse1.jpg,39.0,0.0,1.0,0.0,unchosen,1.0,1.0,2467.0,-0.20654531443341184,4.0,1972.0,-0.515821664991716
514,Exp1,d11032021,gRBxs,outcome_evaluation,34.0,0.0,40.0,Krab1n.jpg,40.0,0.0,1.0,0.0,unchosen,0.0,0.0,1101.0,-0.6095317804445393,4.0,1918.0,-0.5520314406297435
515,Exp1,d11032021,gRBxs,outcome_evaluation,35.0,1.0,5.0,Kupb1n.jpg,36.0,,1.0,1.0,novel,1.0,1.0,5645.0,0.7310029937535302,5.0,2355.0,-0.25900047852200236
516,Exp1,d11032021,gRBxs,outcome_evaluation,36.0,1.0,59.0,Kraa1n.jpg,40.0,,1.0,1.0,novel,1.0,1.0,8767.0,1.6520306269063412,4.0,1331.0,-0.9456451128431167
517,Exp1,d11032021,gRBxs,outcome_evaluation,37.0,1.0,8.0,Klina1.jpg,44.0,1.0,1.0,0.0,chosen,1.0,1.0,4091.0,0.2725542615563912,4.0,2264.0,-0.32002065598608576
518,Exp1,d11032021,gRBxs,outcome_evaluation,38.0,0.0,32.0,Macka1.jpg,41.0,1.0,1.0,0.0,chosen,1.0,1.0,1055.0,-0.6231023349368612,6.0,2705.0,-0.02430748827552773
519,Exp1,d11032021,gRBxs,outcome_evaluation,39.0,1.0,9.0,Lassc1.jpg,36.0,0.0,-1.0,0.0,unchosen,0.0,1.0,1920.0,-0.36791690807037136,4.0,4312.0,1.053268612656143
520,Exp1,d11032021,LBPHd,outcome_evaluation,0.0,0.0,53.0,Gorka1.jpg,59.0,1.0,-1.0,0.0,chosen,0.0,1.0,3643.0,3.3438905899593636,4.0,4152.0,3.746384336364484
521,Exp1,d11032021,LBPHd,outcome_evaluation,1.0,0.0,5.0,Kupb1n.jpg,67.0,1.0,-1.0,0.0,chosen,1.0,0.0,1862.0,0.7871271242324813,4.0,3480.0,2.5487674802709925
522,Exp1,d11032021,LBPHd,outcome_evaluation,2.0,1.0,44.0,Lassf1.jpg,60.0,,1.0,1.0,novel,1.0,1.0,3762.0,3.5147243083319064,2.0,2891.0,1.4990705632485721
523,Exp1,d11032021,LBPHd,outcome_evaluation,3.0,0.0,0.0,Gorkc1.jpg,65.0,0.0,-1.0,0.0,unchosen,0.0,1.0,1390.0,0.10953456060357157,5.0,2104.0,0.09650439398431945
524,Exp1,d11032021,LBPHd,outcome_evaluation,4.0,1.0,39.0,Dekb1n.jpg,69.0,0.0,1.0,0.0,unchosen,0.0,0.0,3088.0,2.547145096709268,3.0,1711.0,-0.6038876066774993
525,Exp1,d11032021,LBPHd,outcome_evaluation,5.0,1.0,45.0,Klia1n.jpg,64.0,,-1.0,1.0,novel,1.0,0.0,1206.0,-0.154611693014478,4.0,2096.0,0.08224705045939694
526,Exp1,d11032021,LBPHd,outcome_evaluation,6.0,0.0,18.0,Krasb1.jpg,60.0,1.0,-1.0,0.0,chosen,0.0,1.0,1078.0,-0.3383656085748603,5.0,2184.0,0.23907782923354465
527,Exp1,d11032021,LBPHd,outcome_evaluation,7.0,1.0,8.0,Klina1.jpg,63.0,1.0,1.0,0.0,chosen,1.0,1.0,885.0,-0.6154320593807493,5.0,1960.0,-0.16012778946428588
528,Exp1,d11032021,LBPHd,outcome_evaluation,8.0,1.0,10.0,Stera1.jpg,72.0,1.0,-1.0,0.0,chosen,0.0,1.0,1846.0,0.7641578847874335,3.0,1704.0,-0.6163627822618064
529,Exp1,d11032021,LBPHd,outcome_evaluation,9.0,0.0,41.0,Vincb1.jpg,57.0,1.0,1.0,0.0,chosen,1.0,1.0,1558.0,0.35071157477657333,4.0,1593.0,-0.8141834236701064
530,Exp1,d11032021,LBPHd,outcome_evaluation,10.0,0.0,31.0,Maca1n.jpg,69.0,1.0,1.0,0.0,chosen,1.0,1.0,978.0,-0.481923355106409,6.0,1704.0,-0.6163627822618064
531,Exp1,d11032021,LBPHd,outcome_evaluation,11.0,0.0,1.0,Lewia1.jpg,62.0,0.0,-1.0,0.0,unchosen,0.0,1.0,805.0,-0.7302782566059882,2.0,1856.0,-0.3454732552882786
532,Exp1,d11032021,LBPHd,outcome_evaluation,12.0,1.0,13.0,Picak1.jpg,47.0,0.0,-1.0,0.0,unchosen,0.0,1.0,950.0,-0.5221195241352427,3.0,1768.0,-0.5023040340624263
533,Exp1,d11032021,LBPHd,outcome_evaluation,13.0,1.0,47.0,Kupkd1.jpg,65.0,1.0,1.0,0.0,chosen,1.0,1.0,990.0,-0.46469642552262314,5.0,2127.0,0.1374942566184717
534,Exp1,d11032021,LBPHd,outcome_evaluation,14.0,0.0,24.0,Dekoa1.jpg,45.0,0.0,-1.0,0.0,unchosen,0.0,1.0,884.0,-0.6168676368460647,2.0,1895.0,-0.27596870560428133
535,Exp1,d11032021,LBPHd,outcome_evaluation,15.0,0.0,11.0,Wdekb1.jpg,56.0,0.0,1.0,0.0,unchosen,0.0,0.0,865.0,-0.644143608687059,4.0,2272.0,0.39590860800769234
536,Exp1,d11032021,LBPHd,outcome_evaluation,16.0,1.0,17.0,Picab1.jpg,60.0,1.0,-1.0,0.0,chosen,0.0,1.0,1207.0,-0.1531761155491625,5.0,2696.0,1.1515478148285858
537,Exp1,d11032021,LBPHd,outcome_evaluation,17.0,1.0,40.0,Krab1n.jpg,60.0,0.0,1.0,0.0,unchosen,0.0,0.0,1047.0,-0.3828685099996404,2.0,2144.0,0.16779111160893206
538,Exp1,d11032021,LBPHd,outcome_evaluation,18.0,0.0,4.0,Mackb1.jpg,66.0,1.0,1.0,0.0,chosen,1.0,1.0,883.0,-0.6183032143113802,5.0,1881.0,-0.30091905677289577
539,Exp1,d11032021,LBPHd,outcome_evaluation,19.0,1.0,35.0,Wdeka1.jpg,65.0,0.0,1.0,0.0,unchosen,0.0,0.0,1251.0,-0.09001070707528108,2.0,1957.0,-0.1654742932861318
540,Exp1,d11032021,LBPHd,outcome_evaluation,20.0,1.0,29.0,Clifb1.jpg,55.0,1.0,1.0,0.0,chosen,1.0,1.0,975.0,-0.48623008750235547,6.0,2408.0,0.6382834479313751
541,Exp1,d11032021,LBPHd,outcome_evaluation,21.0,1.0,21.0,Lewb1n.jpg,72.0,0.0,-1.0,0.0,unchosen,0.0,1.0,1077.0,-0.3398011860401758,2.0,1655.0,-0.7036890113519569
542,Exp1,d11032021,LBPHd,outcome_evaluation,22.0,1.0,51.0,Gora1n.jpg,63.0,1.0,-1.0,0.0,chosen,1.0,0.0,1248.0,-0.09431743947122755,3.0,1457.0,-1.0565582635937891
543,Exp1,d11032021,LBPHd,outcome_evaluation,23.0,1.0,25.0,Clifa1.jpg,56.0,1.0,-1.0,0.0,chosen,0.0,1.0,998.0,-0.45321180580009923,5.0,1959.0,-0.1619099574049012
544,Exp1,d11032021,LBPHd,outcome_evaluation,24.0,1.0,14.0,Kupkb1.jpg,64.0,1.0,1.0,0.0,chosen,1.0,1.0,792.0,-0.7489407636550895,6.0,1935.0,-0.20468198797966874
545,Exp1,d11032021,LBPHd,outcome_evaluation,25.0,1.0,48.0,Picb1n.jpg,60.0,,1.0,1.0,novel,0.0,0.0,1613.0,0.4296683353689251,3.0,1607.0,-0.789233072501492
546,Exp1,d11032021,LBPHd,outcome_evaluation,26.0,0.0,58.0,Mackc1.jpg,57.0,0.0,1.0,0.0,unchosen,0.0,0.0,1239.0,-0.10723763665906692,2.0,2254.0,0.36382958507661667
547,Exp1,d11032021,LBPHd,outcome_evaluation,27.0,1.0,33.0,Kupc1n.jpg,54.0,0.0,1.0,0.0,unchosen,0.0,0.0,1478.0,0.2358653775513344,3.0,2359.0,0.5509572188412247
548,Exp1,d11032021,LBPHd,outcome_evaluation,28.0,0.0,46.0,Deka1n.jpg,68.0,1.0,1.0,0.0,chosen,1.0,1.0,686.0,-0.9011119749785311,5.0,2015.0,-0.06210855273044356
549,Exp1,d11032021,LBPHd,outcome_evaluation,29.0,1.0,27.0,Vinb1n.jpg,46.0,0.0,-1.0,0.0,unchosen,0.0,1.0,1103.0,-0.3024761719419731,2.0,2271.0,0.39412644006707703
550,Exp1,d11032021,LBPHd,outcome_evaluation,30.0,1.0,34.0,Monb1n.jpg,57.0,,-1.0,1.0,novel,0.0,1.0,1019.0,-0.423064679028474,2.0,1534.0,-0.9193313321664099
551,Exp1,d11032021,LBPHd,outcome_evaluation,31.0,0.0,36.0,Gorkf1.jpg,60.0,0.0,-1.0,0.0,unchosen,0.0,1.0,1221.0,-0.1330780310347457,2.0,1510.0,-0.9621033627411776
552,Exp1,d11032021,LBPHd,outcome_evaluation,32.0,1.0,52.0,Picaa1.jpg,62.0,,-1.0,1.0,novel,0.0,1.0,1198.0,-0.1660963127370019,2.0,2154.0,0.1856127910150852
553,Exp1,d11032021,LBPHd,outcome_evaluation,33.0,1.0,30.0,Lasse1.jpg,60.0,,1.0,1.0,novel,1.0,1.0,1148.0,-0.23787518600277624,3.0,1335.0,-1.2739827523488576
554,Exp1,d11032021,LBPHd,outcome_evaluation,34.0,1.0,55.0,Lewic1.jpg,71.0,,-1.0,1.0,novel,1.0,0.0,1077.0,-0.3398011860401758,3.0,1536.0,-0.9157669962851793
555,Exp1,d11032021,LBPHd,outcome_evaluation,35.0,0.0,15.0,Clia1n.jpg,64.0,1.0,-1.0,0.0,chosen,1.0,0.0,989.0,-0.4661320029879386,3.0,1433.0,-1.0993302941685568
556,Exp1,d11032021,LBPHd,outcome_evaluation,36.0,1.0,22.0,Macb1n.jpg,66.0,0.0,-1.0,0.0,unchosen,0.0,1.0,1820.0,0.7268328706892309,2.0,2081.0,0.05551453135016722
557,Exp1,d11032021,LBPHd,outcome_evaluation,37.0,0.0,6.0,Wdekc1.jpg,56.0,0.0,1.0,0.0,unchosen,0.0,0.0,954.0,-0.5163772142739806,2.0,2944.0,1.5935254641011838
558,Exp1,d11032021,LBPHd,outcome_evaluation,38.0,0.0,37.0,Mondb1.jpg,57.0,0.0,1.0,0.0,unchosen,1.0,1.0,868.0,-0.6398368762911125,4.0,1795.0,-0.45418549966581284
559,Exp1,d11032021,LBPHd,outcome_evaluation,39.0,1.0,12.0,Kupkc1.jpg,46.0,,1.0,1.0,novel,0.0,0.0,867.0,-0.641272453756428,2.0,1577.0,-0.8426981107199515
560,Exp1,d11032021,mRarI,outcome_evaluation,0.0,1.0,59.0,Kraa1n.jpg,13.0,1.0,1.0,0.0,chosen,1.0,1.0,1285.0,1.1140668179579418,6.0,2230.0,2.2329465028914965
561,Exp1,d11032021,mRarI,outcome_evaluation,1.0,0.0,28.0,Krasa1.jpg,9.0,0.0,1.0,0.0,unchosen,1.0,1.0,1520.0,1.8927869316406198,3.0,1487.0,0.06215817192635738
562,Exp1,d11032021,mRarI,outcome_evaluation,2.0,0.0,32.0,Macka1.jpg,8.0,1.0,1.0,0.0,chosen,1.0,1.0,1144.0,0.6468347497483352,6.0,1389.0,-0.2241638421174968
563,Exp1,d11032021,mRarI,outcome_evaluation,3.0,0.0,21.0,Lewb1n.jpg,9.0,1.0,1.0,0.0,chosen,1.0,1.0,698.0,-0.8310766149430451,6.0,1350.0,-0.33810831709413264
564,Exp1,d11032021,mRarI,outcome_evaluation,4.0,0.0,33.0,Kupc1n.jpg,7.0,0.0,1.0,0.0,unchosen,0.0,0.0,618.0,-1.096172823856297,3.0,1592.0,0.3689317584019154
565,Exp1,d11032021,mRarI,outcome_evaluation,5.0,1.0,50.0,Gorke1.jpg,9.0,1.0,-1.0,0.0,chosen,0.0,1.0,686.0,-0.8708410462800329,3.0,2437.0,2.8377287162290252
566,Exp1,d11032021,mRarI,outcome_evaluation,6.0,0.0,53.0,Gorka1.jpg,11.0,1.0,-1.0,0.0,chosen,1.0,0.0,1698.0,2.482625996472606,3.0,1687.0,0.6464888128321822
567,Exp1,d11032021,mRarI,outcome_evaluation,7.0,0.0,26.0,Clib1n.jpg,12.0,1.0,-1.0,0.0,chosen,0.0,1.0,905.0,-0.14514017438000534,6.0,1695.0,0.6698620384684152
568,Exp1,d11032021,mRarI,outcome_evaluation,8.0,1.0,6.0,Wdekc1.jpg,10.0,,1.0,1.0,novel,1.0,1.0,1662.0,2.3633327024616424,1.0,1702.0,0.6903136109001191
569,Exp1,d11032021,mRarI,outcome_evaluation,9.0,1.0,40.0,Krab1n.jpg,9.0,,1.0,1.0,novel,0.0,0.0,1109.0,0.5308551583487874,1.0,1607.0,0.41275655646985226
570,Exp1,d11032021,mRarI,outcome_evaluation,10.0,1.0,47.0,Kupkd1.jpg,11.0,,-1.0,1.0,novel,0.0,1.0,962.0,0.04374087447068674,1.0,1351.0,-0.3351866638896035
571,Exp1,d11032021,mRarI,outcome_evaluation,11.0,1.0,13.0,Picak1.jpg,9.0,1.0,-1.0,0.0,chosen,0.0,1.0,931.0,-0.05898390648319843,6.0,1723.0,0.7516683281952307
572,Exp1,d11032021,mRarI,outcome_evaluation,12.0,1.0,25.0,Clifa1.jpg,7.0,,-1.0,1.0,novel,0.0,1.0,995.0,0.15309306064740322,1.0,1322.0,-0.4199146068209481
573,Exp1,d11032021,mRarI,outcome_evaluation,13.0,1.0,49.0,Hinda1.jpg,11.0,0.0,-1.0,0.0,unchosen,0.0,1.0,824.0,-0.41355008590467307,1.0,1604.0,0.4039915968562649
574,Exp1,d11032021,mRarI,outcome_evaluation,14.0,0.0,44.0,Lassf1.jpg,11.0,1.0,1.0,0.0,chosen,1.0,1.0,784.0,-0.546098190361299,6.0,1450.0,-0.04594299664122021
575,Exp1,d11032021,mRarI,outcome_evaluation,15.0,0.0,4.0,Mackb1.jpg,8.0,0.0,1.0,0.0,unchosen,0.0,0.0,1200.0,0.8324020959876116,2.0,1292.0,-0.5075642029568218
576,Exp1,d11032021,mRarI,outcome_evaluation,16.0,1.0,2.0,Dekob1.jpg,9.0,0.0,1.0,0.0,unchosen,0.0,0.0,787.0,-0.5361570825270521,2.0,1590.0,0.36308845199285716
577,Exp1,d11032021,mRarI,outcome_evaluation,17.0,1.0,20.0,Gorc1n.jpg,11.0,0.0,-1.0,0.0,unchosen,1.0,0.0,1066.0,0.3883659460579144,4.0,1434.0,-0.09268944791368619
578,Exp1,d11032021,mRarI,outcome_evaluation,18.0,1.0,34.0,Monb1n.jpg,12.0,1.0,-1.0,0.0,chosen,1.0,0.0,666.0,-0.9371150985083458,4.0,1561.0,0.27836050906151255
579,Exp1,d11032021,mRarI,outcome_evaluation,19.0,0.0,10.0,Stera1.jpg,7.0,1.0,-1.0,0.0,chosen,0.0,1.0,749.0,-0.6620777817608469,3.0,1054.0,-1.2029176656347533
580,Exp1,d11032021,mRarI,outcome_evaluation,20.0,1.0,18.0,Krasb1.jpg,12.0,,1.0,1.0,novel,0.0,0.0,867.0,-0.27106087361380005,3.0,1183.0,-0.8260244022504963
581,Exp1,d11032021,mRarI,outcome_evaluation,21.0,1.0,46.0,Deka1n.jpg,7.0,0.0,1.0,0.0,unchosen,0.0,0.0,842.0,-0.35390343889919135,2.0,1322.0,-0.4199146068209481
582,Exp1,d11032021,mRarI,outcome_evaluation,22.0,1.0,37.0,Mondb1.jpg,8.0,1.0,1.0,0.0,chosen,1.0,1.0,1818.0,2.8802703098424836,6.0,1589.0,0.360166798788328
583,Exp1,d11032021,mRarI,outcome_evaluation,23.0,1.0,52.0,Picaa1.jpg,11.0,0.0,-1.0,0.0,unchosen,0.0,1.0,794.0,-0.5129611642471426,3.0,1422.0,-0.12774928636803567
584,Exp1,d11032021,mRarI,outcome_evaluation,24.0,0.0,24.0,Dekoa1.jpg,12.0,0.0,1.0,0.0,unchosen,0.0,0.0,650.0,-0.9901343402909962,3.0,1023.0,-1.2934889149751563
585,Exp1,d11032021,mRarI,outcome_evaluation,25.0,1.0,11.0,Wdekb1.jpg,7.0,,-1.0,1.0,novel,0.0,1.0,691.0,-0.8542725332229546,3.0,1038.0,-1.2496641169072193
586,Exp1,d11032021,mRarI,outcome_evaluation,26.0,0.0,56.0,Luisc1.jpg,13.0,1.0,-1.0,0.0,chosen,0.0,1.0,930.0,-0.062297609094614084,6.0,1567.0,0.2958904282886873
587,Exp1,d11032021,mRarI,outcome_evaluation,27.0,1.0,48.0,Picb1n.jpg,11.0,1.0,1.0,0.0,chosen,1.0,1.0,690.0,-0.8575862358343702,6.0,1293.0,-0.5046425497522927
588,Exp1,d11032021,mRarI,outcome_evaluation,28.0,1.0,55.0,Lewic1.jpg,11.0,0.0,1.0,0.0,unchosen,0.0,0.0,864.0,-0.281001981448047,3.0,1117.0,-1.0188535137494186
589,Exp1,d11032021,mRarI,outcome_evaluation,29.0,1.0,38.0,Lasc1n.jpg,12.0,,-1.0,1.0,novel,0.0,1.0,980.0,0.10338752147616845,2.0,2592.0,3.2905849629310393
590,Exp1,d11032021,mRarI,outcome_evaluation,30.0,1.0,0.0,Gorkc1.jpg,11.0,1.0,-1.0,0.0,chosen,0.0,1.0,908.0,-0.1351990665457584,4.0,1282.0,-0.5367807350021131
591,Exp1,d11032021,mRarI,outcome_evaluation,31.0,0.0,30.0,Lasse1.jpg,9.0,1.0,1.0,0.0,chosen,1.0,1.0,806.0,-0.47319673291015474,6.0,1595.0,0.3776967180155028
592,Exp1,d11032021,mRarI,outcome_evaluation,32.0,1.0,7.0,Pica1n.jpg,10.0,1.0,1.0,0.0,chosen,1.0,1.0,621.0,-1.08623171602205,6.0,1135.0,-0.9662637560678943
593,Exp1,d11032021,mRarI,outcome_evaluation,33.0,0.0,27.0,Vinb1n.jpg,12.0,0.0,-1.0,0.0,unchosen,1.0,0.0,1070.0,0.40162075650357704,4.0,1148.0,-0.9282822644090157
594,Exp1,d11032021,mRarI,outcome_evaluation,34.0,0.0,15.0,Clia1n.jpg,12.0,0.0,-1.0,0.0,unchosen,1.0,0.0,802.0,-0.48645154335581736,6.0,1311.0,-0.4520527920707685
595,Exp1,d11032021,mRarI,outcome_evaluation,35.0,1.0,19.0,Macc1n.jpg,11.0,0.0,1.0,0.0,unchosen,1.0,1.0,820.0,-0.42680489635033564,3.0,1551.0,0.24914397701622132
596,Exp1,d11032021,mRarI,outcome_evaluation,36.0,0.0,41.0,Vincb1.jpg,7.0,0.0,-1.0,0.0,unchosen,0.0,1.0,577.0,-1.2320346309243388,2.0,1126.0,-0.9925586349086564
597,Exp1,d11032021,mRarI,outcome_evaluation,37.0,0.0,31.0,Maca1n.jpg,11.0,0.0,-1.0,0.0,unchosen,1.0,0.0,996.0,0.15640676325881886,5.0,1295.0,-0.49879924334323444
598,Exp1,d11032021,mRarI,outcome_evaluation,38.0,1.0,22.0,Macb1n.jpg,8.0,0.0,-1.0,0.0,unchosen,0.0,1.0,1208.0,0.8589117168789367,3.0,1142.0,-0.9458121836361905
599,Exp1,d11032021,mRarI,outcome_evaluation,39.0,1.0,43.0,Picac1.jpg,14.0,,1.0,1.0,novel,0.0,0.0,729.0,-0.7283518339891598,1.0,1341.0,-0.36440319593489473
600,Exp1,d11032021,zwAoN,outcome_evaluation,0.0,1.0,7.0,Pica1n.jpg,50.0,0.0,1.0,0.0,unchosen,1.0,1.0,1695.0,-0.01718951745106695,5.0,3698.0,1.9655311133123285
601,Exp1,d11032021,zwAoN,outcome_evaluation,1.0,1.0,12.0,Kupkc1.jpg,64.0,1.0,-1.0,0.0,chosen,0.0,1.0,444.0,-0.2506757968352665,3.0,3086.0,1.209165450278676
602,Exp1,d11032021,zwAoN,outcome_evaluation,2.0,1.0,43.0,Picac1.jpg,56.0,,1.0,1.0,novel,1.0,1.0,867.0,-0.17172719877010548,4.0,2332.0,0.27730317915551594
603,Exp1,d11032021,zwAoN,outcome_evaluation,3.0,0.0,15.0,Clia1n.jpg,58.0,0.0,1.0,0.0,unchosen,0.0,0.0,1740.0,-0.008790730422858335,4.0,2230.0,0.15124223531657388
604,Exp1,d11032021,zwAoN,outcome_evaluation,4.0,0.0,42.0,Picc1n.jpg,64.0,1.0,-1.0,0.0,chosen,1.0,0.0,737.0,-0.1959903612960415,3.0,2217.0,0.1351756444351401
605,Exp1,d11032021,zwAoN,outcome_evaluation,5.0,1.0,28.0,Krasa1.jpg,58.0,0.0,1.0,0.0,unchosen,0.0,0.0,500.0,-0.2402239729779402,4.0,1493.0,-0.7596098785000959
606,Exp1,d11032021,zwAoN,outcome_evaluation,6.0,0.0,9.0,Lassc1.jpg,57.0,0.0,1.0,0.0,unchosen,0.0,0.0,1045.0,-0.13850533008074695,2.0,1829.0,-0.34435029879534546
607,Exp1,d11032021,zwAoN,outcome_evaluation,7.0,1.0,14.0,Kupkb1.jpg,50.0,0.0,-1.0,0.0,unchosen,1.0,0.0,1397.0,-0.07280815154898178,4.0,1989.0,-0.14660764179308336
608,Exp1,d11032021,zwAoN,outcome_evaluation,8.0,0.0,22.0,Macb1n.jpg,42.0,0.0,-1.0,0.0,unchosen,0.0,1.0,469.0,-0.24600980404181724,2.0,2175.0,0.0832681969720463
609,Exp1,d11032021,zwAoN,outcome_evaluation,9.0,1.0,5.0,Kupb1n.jpg,55.0,0.0,-1.0,0.0,unchosen,1.0,0.0,483.0,-0.24339684807748568,2.0,1714.0,-0.4864778335157213
610,Exp1,d11032021,zwAoN,outcome_evaluation,10.0,0.0,49.0,Hinda1.jpg,64.0,1.0,1.0,0.0,chosen,1.0,1.0,10.0,-0.3316774317295451,2.0,1209.0,-1.110603094679111
611,Exp1,d11032021,zwAoN,outcome_evaluation,11.0,1.0,20.0,Gorc1n.jpg,50.0,,1.0,1.0,novel,1.0,1.0,187.0,-0.29864220275192455,2.0,1349.0,-0.9375782698021317
612,Exp1,d11032021,zwAoN,outcome_evaluation,12.0,1.0,19.0,Macc1n.jpg,42.0,1.0,-1.0,0.0,chosen,0.0,1.0,308.0,-0.27605879763163027,2.0,1596.0,-0.6323130430548897
613,Exp1,d11032021,zwAoN,outcome_evaluation,13.0,0.0,35.0,Wdeka1.jpg,59.0,1.0,-1.0,0.0,chosen,1.0,0.0,271.0,-0.28296446696593514,3.0,1541.0,-0.7002870813994172
614,Exp1,d11032021,zwAoN,outcome_evaluation,14.0,1.0,47.0,Kupkd1.jpg,55.0,0.0,1.0,0.0,unchosen,1.0,1.0,271.0,-0.28296446696593514,3.0,1473.0,-0.7843277106253786
615,Exp1,d11032021,zwAoN,outcome_evaluation,15.0,1.0,17.0,Picab1.jpg,39.0,,-1.0,1.0,novel,0.0,1.0,1386.0,-0.07486118837809945,3.0,1596.0,-0.6323130430548897
616,Exp1,d11032021,zwAoN,outcome_evaluation,16.0,0.0,4.0,Mackb1.jpg,40.0,1.0,-1.0,0.0,chosen,1.0,0.0,354.0,-0.2674733708916837,3.0,1281.0,-1.021618899028093
617,Exp1,d11032021,zwAoN,outcome_evaluation,17.0,1.0,2.0,Dekob1.jpg,39.0,1.0,-1.0,0.0,chosen,0.0,1.0,1135.0,-0.12170775602432973,4.0,2170.0,0.07708873894072561
618,Exp1,d11032021,zwAoN,outcome_evaluation,18.0,1.0,53.0,Gorka1.jpg,62.0,0.0,-1.0,0.0,unchosen,0.0,1.0,1339.0,-0.083633254829784,3.0,1713.0,-0.48771372512198546
619,Exp1,d11032021,zwAoN,outcome_evaluation,19.0,1.0,33.0,Kupc1n.jpg,61.0,,1.0,1.0,novel,0.0,0.0,641.0,-0.21390777362288654,3.0,2429.0,0.39718466496313737
620,Exp1,d11032021,zwAoN,outcome_evaluation,20.0,1.0,51.0,Gora1n.jpg,50.0,1.0,1.0,0.0,chosen,1.0,1.0,1112.0,-0.126000469394303,3.0,1142.0,-1.1934078322988082
621,Exp1,d11032021,zwAoN,outcome_evaluation,21.0,0.0,26.0,Clib1n.jpg,50.0,0.0,-1.0,0.0,unchosen,1.0,0.0,2379.0,0.11047204537770401,3.0,1992.0,-0.14289996697429097
622,Exp1,d11032021,zwAoN,outcome_evaluation,22.0,1.0,59.0,Kraa1n.jpg,62.0,0.0,-1.0,0.0,unchosen,0.0,1.0,990.0,-0.14877051422633528,3.0,3109.0,1.2375909572227513
623,Exp1,d11032021,zwAoN,outcome_evaluation,23.0,0.0,38.0,Lasc1n.jpg,64.0,0.0,-1.0,0.0,unchosen,0.0,1.0,981.0,-0.150450271631977,1.0,2209.0,0.125288511585027
624,Exp1,d11032021,zwAoN,outcome_evaluation,24.0,1.0,45.0,Klia1n.jpg,65.0,,-1.0,1.0,novel,0.0,1.0,266.0,-0.283897665524625,1.0,1637.0,-0.58164148719806
625,Exp1,d11032021,zwAoN,outcome_evaluation,25.0,0.0,10.0,Stera1.jpg,39.0,0.0,1.0,0.0,unchosen,1.0,1.0,637.0,-0.21465433246983842,1.0,1867.0,-0.29738641775730823
626,Exp1,d11032021,zwAoN,outcome_evaluation,26.0,0.0,40.0,Krab1n.jpg,56.0,1.0,1.0,0.0,chosen,1.0,1.0,1309.0,-0.08923244618192308,3.0,2158.0,0.06225803966555595
627,Exp1,d11032021,zwAoN,outcome_evaluation,27.0,0.0,56.0,Luisc1.jpg,38.0,0.0,-1.0,0.0,unchosen,1.0,0.0,801.0,-0.18404541974481145,2.0,2966.0,1.0608584575269795
628,Exp1,d11032021,zwAoN,outcome_evaluation,28.0,1.0,29.0,Clifb1.jpg,50.0,,-1.0,1.0,novel,1.0,0.0,1629.0,-0.02950773842577292,1.0,3401.0,1.5984713062518796
