,Exp,group,PID,phase,trial,stimulus_id,painting,rt,rating,zscored_rt,zscored_rating
0,Exp1,d11032021,ZGrrY,rating,0.0,46.0,Deka1n.jpg,3.924,16.0,1.8125910307582778,-1.2726062281449262
1,Exp1,d11032021,ZGrrY,rating,1.0,25.0,Clifa1.jpg,3.297,9.0,0.6849670960922105,-1.6027449655265624
2,Exp1,d11032021,ZGrrY,rating,2.0,12.0,Kupkc1.jpg,2.973,17.0,0.10227147435089286,-1.225443551376121
3,Exp1,d11032021,ZGrrY,rating,3.0,58.0,Mackc1.jpg,2.807,28.0,-0.1962701096276831,-0.7066541069192641
4,Exp1,d11032021,ZGrrY,rating,4.0,8.0,Klina1.jpg,4.06,14.0,2.057179316427472,-1.3669315816825365
5,Exp1,d11032021,ZGrrY,rating,5.0,43.0,Picac1.jpg,3.367,2.0,0.8108581254807664,-1.9328837029081987
6,Exp1,d11032021,ZGrrY,rating,6.0,16.0,Lewa1n.jpg,2.87,32.0,-0.08296818317798224,-0.5180033998440435
7,Exp1,d11032021,ZGrrY,rating,7.0,56.0,Luisc1.jpg,4.205,36.0,2.317953591589482,-0.3293526927688228
8,Exp1,d11032021,ZGrrY,rating,8.0,0.0,Gorkc1.jpg,2.739,19.0,-0.31856425246228065,-1.1311181978385108
9,Exp1,d11032021,ZGrrY,rating,9.0,35.0,Wdeka1.jpg,3.176,65.0,0.4673554595777063,1.038364933526527
10,Exp1,d11032021,ZGrrY,rating,10.0,32.0,Macka1.jpg,4.081,40.0,2.0949466252440403,-0.14070198569360212
11,Exp1,d11032021,ZGrrY,rating,11.0,31.0,Maca1n.jpg,3.85,39.0,1.6795062282618043,-0.1878646624624073
12,Exp1,d11032021,ZGrrY,rating,12.0,54.0,Kupka1.jpg,2.866,8.0,-0.09016195628589974,-1.6499076422953676
13,Exp1,d11032021,ZGrrY,rating,13.0,51.0,Gora1n.jpg,2.362,25.0,-0.9965773678835043,-0.8481421372256797
14,Exp1,d11032021,ZGrrY,rating,14.0,20.0,Gorc1n.jpg,2.661,14.0,-0.45884282806667154,-1.3669315816825365
15,Exp1,d11032021,ZGrrY,rating,15.0,13.0,Picak1.jpg,2.859,16.0,-0.10275105922475557,-1.2726062281449262
16,Exp1,d11032021,ZGrrY,rating,16.0,18.0,Krasb1.jpg,2.495,64.0,-0.7573844120452475,0.9912022567577219
17,Exp1,d11032021,ZGrrY,rating,17.0,48.0,Picb1n.jpg,2.541,66.0,-0.6746560213041967,1.0855276102953322
18,Exp1,d11032021,ZGrrY,rating,18.0,15.0,Clia1n.jpg,3.647,34.0,1.3144222430349908,-0.42367804630643313
19,Exp1,d11032021,ZGrrY,rating,19.0,39.0,Dekb1n.jpg,3.356,36.0,0.7910752494339931,-0.3293526927688228
20,Exp1,d11032021,ZGrrY,rating,20.0,6.0,Wdekc1.jpg,2.736,12.0,-0.3239595822932182,-1.4612569352201468
21,Exp1,d11032021,ZGrrY,rating,21.0,33.0,Kupc1n.jpg,3.237,57.0,0.5770604994734481,0.6610635193760858
22,Exp1,d11032021,ZGrrY,rating,22.0,55.0,Lewic1.jpg,3.122,59.0,0.3702395226208196,0.755388872913696
23,Exp1,d11032021,ZGrrY,rating,23.0,44.0,Lassf1.jpg,2.862,68.0,-0.09735572939381724,1.1798529638329427
24,Exp1,d11032021,ZGrrY,rating,24.0,38.0,Lasc1n.jpg,2.753,7.0,-0.29338604658456896,-1.6970703190641727
25,Exp1,d11032021,ZGrrY,rating,25.0,59.0,Kraa1n.jpg,3.62,38.0,1.2658642745565483,-0.23502733923121247
26,Exp1,d11032021,ZGrrY,rating,26.0,4.0,Mackb1.jpg,2.519,41.0,-0.7142217733977425,-0.09353930892479696
27,Exp1,d11032021,ZGrrY,rating,27.0,2.0,Dekob1.jpg,2.279,36.0,-1.1458481598727925,-0.3293526927688228
28,Exp1,d11032021,ZGrrY,rating,28.0,17.0,Picab1.jpg,2.287,65.0,-1.1314606136569576,1.038364933526527
29,Exp1,d11032021,ZGrrY,rating,29.0,37.0,Mondb1.jpg,3.574,58.0,1.1831358838154966,0.7082261961448909
30,Exp1,d11032021,ZGrrY,rating,30.0,29.0,Clifb1.jpg,2.584,66.0,-0.5973229603940833,1.0855276102953322
31,Exp1,d11032021,ZGrrY,rating,31.0,23.0,Lewib1.jpg,2.964,35.0,0.08608548485807868,-0.376515369537628
32,Exp1,d11032021,ZGrrY,rating,32.0,3.0,Fogeg1.jpg,2.812,65.0,-0.18727789324278643,1.038364933526527
33,Exp1,d11032021,ZGrrY,rating,33.0,11.0,Wdekb1.jpg,2.378,22.0,-0.9678022754518343,-0.9896301675320952
34,Exp1,d11032021,ZGrrY,rating,34.0,14.0,Kupkb1.jpg,3.287,29.0,0.6669826633224164,-0.659491430150459
35,Exp1,d11032021,ZGrrY,rating,35.0,36.0,Gorkf1.jpg,1.824,35.0,-1.9641398508984076,-0.376515369537628
36,Exp1,d11032021,ZGrrY,rating,36.0,47.0,Kupkd1.jpg,3.022,31.0,0.19039519492288207,-0.5651660766128487
37,Exp1,d11032021,ZGrrY,rating,37.0,40.0,Krab1n.jpg,2.482,38.0,-0.7807641746459791,-0.23502733923121247
38,Exp1,d11032021,ZGrrY,rating,38.0,1.0,Lewia1.jpg,3.246,65.0,0.5932464889662622,1.038364933526527
39,Exp1,d11032021,ZGrrY,rating,39.0,49.0,Hinda1.jpg,2.905,45.0,-0.020022668483704688,0.09511139815042371
40,Exp1,d11032021,ZGrrY,rating,40.0,5.0,Kupb1n.jpg,2.636,62.0,-0.5038039099911558,0.8968769032201116
41,Exp1,d11032021,ZGrrY,rating,41.0,30.0,Lasse1.jpg,2.239,73.0,-1.2177858909519677,1.4156663476769684
42,Exp1,d11032021,ZGrrY,rating,42.0,53.0,Gorka1.jpg,2.479,54.0,-0.7861595044769175,0.5195754890696702
43,Exp1,d11032021,ZGrrY,rating,43.0,7.0,Pica1n.jpg,2.388,73.0,-0.949817842682041,1.4156663476769684
44,Exp1,d11032021,ZGrrY,rating,44.0,42.0,Picc1n.jpg,2.823,67.0,-0.1674950171960131,1.1326902870641373
45,Exp1,d11032021,ZGrrY,rating,45.0,57.0,Lewc1n.jpg,2.695,59.0,-0.3976957566493732,0.755388872913696
46,Exp1,d11032021,ZGrrY,rating,46.0,50.0,Gorke1.jpg,3.006,37.0,0.16162010249121206,-0.28219001600001764
47,Exp1,d11032021,ZGrrY,rating,47.0,52.0,Picaa1.jpg,4.406,69.0,2.6794406902623353,1.2270156406017478
48,Exp1,d11032021,ZGrrY,rating,48.0,34.0,Monb1n.jpg,2.469,35.0,-0.8041439372467116,-0.376515369537628
49,Exp1,d11032021,ZGrrY,rating,49.0,21.0,Lewb1n.jpg,2.846,38.0,-0.12613082182548724,-0.23502733923121247
50,Exp1,d11032021,ZGrrY,rating,50.0,24.0,Dekoa1.jpg,2.765,66.0,-0.2718047272608165,1.0855276102953322
51,Exp1,d11032021,ZGrrY,rating,51.0,27.0,Vinb1n.jpg,2.205,58.0,-1.278932962369266,0.7082261961448909
52,Exp1,d11032021,ZGrrY,rating,52.0,26.0,Clib1n.jpg,2.292,64.0,-1.122468397272061,0.9912022567577219
53,Exp1,d11032021,ZGrrY,rating,53.0,22.0,Macb1n.jpg,2.782,59.0,-0.2412311915521673,0.755388872913696
54,Exp1,d11032021,ZGrrY,rating,54.0,19.0,Macc1n.jpg,1.982,68.0,-1.6799858131356666,1.1798529638329427
55,Exp1,d11032021,ZGrrY,rating,55.0,45.0,Klia1n.jpg,3.136,42.0,0.3954177284985313,-0.0463766321559918
56,Exp1,d11032021,ZGrrY,rating,56.0,41.0,Vincb1.jpg,2.657,66.0,-0.46603660117458906,1.0855276102953322
57,Exp1,d11032021,ZGrrY,rating,57.0,10.0,Stera1.jpg,2.242,62.0,-1.2123905611210293,0.8968769032201116
58,Exp1,d11032021,ZGrrY,rating,58.0,9.0,Lassc1.jpg,3.072,4.0,0.28031735877185127,-1.8385583493705882
59,Exp1,d11032021,ZGrrY,rating,59.0,28.0,Krasa1.jpg,3.219,71.0,0.5446885204878189,1.3213409941393581
60,Exp1,d11042021,l6WpQ,rating,0.0,41.0,Vincb1.jpg,8.779,21.0,1.957682820715179,-1.8784858499467318
61,Exp1,d11042021,l6WpQ,rating,1.0,42.0,Picc1n.jpg,6.677,78.0,0.9251258515677352,0.13417756071048076
62,Exp1,d11042021,l6WpQ,rating,2.0,46.0,Deka1n.jpg,5.806,85.0,0.4972680398991228,0.38134675149294545
63,Exp1,d11042021,l6WpQ,rating,3.0,14.0,Kupkb1.jpg,4.301,76.0,-0.2420270307797082,0.06355779191549082
64,Exp1,d11042021,l6WpQ,rating,4.0,4.0,Mackb1.jpg,5.821,100.0,0.5046364293078818,0.9109950174553698
65,Exp1,d11042021,l6WpQ,rating,5.0,9.0,Lassc1.jpg,7.661,80.0,1.408492196782333,0.20479732950547067
66,Exp1,d11042021,l6WpQ,rating,6.0,25.0,Clifa1.jpg,5.758,33.0,0.47368919379109364,-1.4547672371767923
67,Exp1,d11042021,l6WpQ,rating,7.0,5.0,Kupb1n.jpg,6.526,20.0,0.8509507315195602,-1.913795734344227
68,Exp1,d11042021,l6WpQ,rating,8.0,2.0,Dekob1.jpg,5.397,29.0,0.2963566220202911,-1.5960067747667723
69,Exp1,d11042021,l6WpQ,rating,9.0,36.0,Gorkf1.jpg,3.967,80.0,-0.40609650161474453,0.20479732950547067
70,Exp1,d11042021,l6WpQ,rating,10.0,15.0,Clia1n.jpg,4.374,15.0,-0.20616753565708076,-2.090345156331702
71,Exp1,d11042021,l6WpQ,rating,11.0,55.0,Lewic1.jpg,4.039,85.0,-0.3707282324527009,0.38134675149294545
72,Exp1,d11042021,l6WpQ,rating,12.0,29.0,Clifb1.jpg,6.405,38.0,0.7915123902889035,-1.2782178151893175
73,Exp1,d11042021,l6WpQ,rating,13.0,28.0,Krasa1.jpg,5.694,89.0,0.4422507323137214,0.5225862890829253
74,Exp1,d11042021,l6WpQ,rating,14.0,57.0,Lewc1n.jpg,5.023,83.0,0.11263811276189692,0.31072698269795557
75,Exp1,d11042021,l6WpQ,rating,15.0,24.0,Dekoa1.jpg,6.998,74.0,1.0828093849151805,-0.007061976879499093
76,Exp1,d11042021,l6WpQ,rating,16.0,40.0,Krab1n.jpg,4.43,95.0,-0.17865888186438003,0.734445595467895
77,Exp1,d11042021,l6WpQ,rating,17.0,37.0,Mondb1.jpg,3.982,26.0,-0.3987281122059853,-1.7019364279592573
78,Exp1,d11042021,l6WpQ,rating,18.0,20.0,Gorc1n.jpg,4.886,87.0,0.045340156161897224,0.4519665202879354
79,Exp1,d11042021,l6WpQ,rating,19.0,56.0,Luisc1.jpg,12.006,83.0,3.542868995519557,0.31072698269795557
80,Exp1,d11042021,l6WpQ,rating,20.0,1.0,Lewia1.jpg,9.414,94.0,2.2696113056859817,0.6991357110704001
81,Exp1,d11042021,l6WpQ,rating,21.0,38.0,Lasc1n.jpg,5.551,94.0,0.37200541995021796,0.6991357110704001
82,Exp1,d11042021,l6WpQ,rating,22.0,23.0,Lewib1.jpg,7.038,88.0,1.1024584233385382,0.4872764046854303
83,Exp1,d11042021,l6WpQ,rating,23.0,34.0,Monb1n.jpg,8.565,74.0,1.8525604651502157,-0.007061976879499093
84,Exp1,d11042021,l6WpQ,rating,24.0,32.0,Macka1.jpg,5.27,89.0,0.2339709250261303,0.5225862890829253
85,Exp1,d11042021,l6WpQ,rating,25.0,44.0,Lassf1.jpg,4.605,19.0,-0.09269433876219002,-1.949105618741722
86,Exp1,d11042021,l6WpQ,rating,26.0,0.0,Gorkc1.jpg,3.406,95.0,-0.6816742655023353,0.734445595467895
87,Exp1,d11042021,l6WpQ,rating,27.0,58.0,Mackc1.jpg,6.526,100.0,0.8509507315195602,0.9109950174553698
88,Exp1,d11042021,l6WpQ,rating,28.0,3.0,Fogeg1.jpg,7.566,18.0,1.3618257305268588,-1.9844155031392168
89,Exp1,d11042021,l6WpQ,rating,29.0,6.0,Wdekc1.jpg,6.83,84.0,1.0002834235370783,0.3460368670954505
90,Exp1,d11042021,l6WpQ,rating,30.0,45.0,Klia1n.jpg,2.606,70.0,-1.0746550339694882,-0.14830151446947892
91,Exp1,d11042021,l6WpQ,rating,31.0,39.0,Dekb1n.jpg,4.43,84.0,-0.17865888186438003,0.3460368670954505
92,Exp1,d11042021,l6WpQ,rating,32.0,49.0,Hinda1.jpg,2.782,100.0,-0.9881992649067145,0.9109950174553698
93,Exp1,d11042021,l6WpQ,rating,33.0,54.0,Kupka1.jpg,3.038,99.0,-0.8624454189972258,0.8756851330578749
94,Exp1,d11042021,l6WpQ,rating,34.0,18.0,Krasb1.jpg,4.03,100.0,-0.3751492660979561,0.9109950174553698
95,Exp1,d11042021,l6WpQ,rating,35.0,35.0,Wdeka1.jpg,2.59,11.0,-1.0825146493388313,-2.2315846939216817
96,Exp1,d11042021,l6WpQ,rating,36.0,53.0,Gorka1.jpg,2.566,67.0,-1.0943040723928459,-0.2542311676619638
97,Exp1,d11042021,l6WpQ,rating,37.0,52.0,Picaa1.jpg,4.022,26.0,-0.3790790737826277,-1.7019364279592573
98,Exp1,d11042021,l6WpQ,rating,38.0,7.0,Pica1n.jpg,2.814,82.0,-0.9724800341680284,0.27541709830046057
99,Exp1,d11042021,l6WpQ,rating,39.0,30.0,Lasse1.jpg,2.502,92.0,-1.125742533870218,0.6285159422754102
100,Exp1,d11042021,l6WpQ,rating,40.0,8.0,Klina1.jpg,3.102,95.0,-0.8310069575198535,0.734445595467895
101,Exp1,d11042021,l6WpQ,rating,41.0,48.0,Picb1n.jpg,3.022,100.0,-0.8703050343665688,0.9109950174553698
102,Exp1,d11042021,l6WpQ,rating,42.0,13.0,Picak1.jpg,2.734,97.0,-1.0117781110147437,0.805065364262885
103,Exp1,d11042021,l6WpQ,rating,43.0,26.0,Clib1n.jpg,5.053,73.0,0.12737489157941528,-0.04237186127699405
104,Exp1,d11042021,l6WpQ,rating,44.0,47.0,Kupkd1.jpg,6.502,86.0,0.8391613084655456,0.41665663589044044
105,Exp1,d11042021,l6WpQ,rating,45.0,11.0,Wdekb1.jpg,5.502,17.0,0.3479353478816047,-2.019725387536712
106,Exp1,d11042021,l6WpQ,rating,46.0,10.0,Stera1.jpg,4.038,95.0,-0.37121945841328463,0.734445595467895
107,Exp1,d11042021,l6WpQ,rating,47.0,51.0,Gora1n.jpg,2.494,91.0,-1.1296723415548895,0.5932060578779152
108,Exp1,d11042021,l6WpQ,rating,48.0,59.0,Kraa1n.jpg,3.198,100.0,-0.7838492653037952,0.9109950174553698
109,Exp1,d11042021,l6WpQ,rating,49.0,33.0,Kupc1n.jpg,2.542,99.0,-1.1060934954468604,0.8756851330578749
110,Exp1,d11042021,l6WpQ,rating,50.0,17.0,Picab1.jpg,3.335,93.0,-0.7165513087037952,0.6638258266729051
111,Exp1,d11042021,l6WpQ,rating,51.0,16.0,Lewa1n.jpg,3.924,84.0,-0.42721921791985407,0.3460368670954505
112,Exp1,d11042021,l6WpQ,rating,52.0,21.0,Lewb1n.jpg,3.446,100.0,-0.6620252270789777,0.9109950174553698
113,Exp1,d11042021,l6WpQ,rating,53.0,27.0,Vinb1n.jpg,2.989,90.0,-0.8865154910658388,0.5578961734804203
114,Exp1,d11042021,l6WpQ,rating,54.0,31.0,Maca1n.jpg,3.526,85.0,-0.6227271502322625,0.38134675149294545
115,Exp1,d11042021,l6WpQ,rating,55.0,43.0,Picac1.jpg,2.302,94.0,-1.2239877259870062,0.6991357110704001
116,Exp1,d11042021,l6WpQ,rating,56.0,19.0,Macc1n.jpg,2.71,94.0,-1.0235675340687582,0.6991357110704001
117,Exp1,d11042021,l6WpQ,rating,57.0,50.0,Gorke1.jpg,6.55,79.0,0.8627401545735748,0.1694874451079757
118,Exp1,d11042021,l6WpQ,rating,58.0,12.0,Kupkc1.jpg,2.59,31.0,-1.0825146493388313,-1.5253870059717825
119,Exp1,d11042021,l6WpQ,rating,59.0,22.0,Macb1n.jpg,3.382,86.0,-0.69346368855635,0.41665663589044044
120,Exp1,d11032021,GCq3m,rating,0.0,37.0,Mondb1.jpg,5.029,40.0,0.840387119323481,2.6622494704904147
121,Exp1,d11032021,GCq3m,rating,1.0,11.0,Wdekb1.jpg,2.695,10.0,-0.8138791676808251,-0.24026358031682113
122,Exp1,d11032021,GCq3m,rating,2.0,19.0,Macc1n.jpg,2.572,32.0,-0.9010577252221831,1.8882459902751518
123,Exp1,d11032021,GCq3m,rating,3.0,45.0,Klia1n.jpg,2.915,11.0,-0.657950040371079,-0.14351314528991324
124,Exp1,d11032021,GCq3m,rating,4.0,47.0,Kupkd1.jpg,3.683,12.0,-0.11361563230796554,-0.04676271026300539
125,Exp1,d11032021,GCq3m,rating,5.0,57.0,Lewc1n.jpg,3.422,34.0,-0.29860427879816404,2.0817468603289675
126,Exp1,d11032021,GCq3m,rating,6.0,22.0,Macb1n.jpg,2.894,10.0,-0.6728341843415546,-0.24026358031682113
127,Exp1,d11032021,GCq3m,rating,7.0,46.0,Deka1n.jpg,3.657,19.0,-0.13204362008093537,0.6304903349253497
128,Exp1,d11032021,GCq3m,rating,8.0,23.0,Lewib1.jpg,2.817,6.0,-0.7274093788999657,-0.6272653204244526
129,Exp1,d11032021,GCq3m,rating,9.0,43.0,Picac1.jpg,2.899,14.0,-0.6692903405390606,0.14673815979081034
130,Exp1,d11032021,GCq3m,rating,10.0,30.0,Lasse1.jpg,2.683,5.0,-0.8223843928068113,-0.7240157554513604
131,Exp1,d11032021,GCq3m,rating,11.0,55.0,Lewic1.jpg,3.738,50.0,-0.0746333504805289,3.6297538207594933
132,Exp1,d11032021,GCq3m,rating,12.0,36.0,Gorkf1.jpg,2.968,7.0,-0.6203852960646402,-0.5305148853975447
133,Exp1,d11032021,GCq3m,rating,13.0,0.0,Gorkc1.jpg,3.93,7.0,0.06145025153524961,-0.5305148853975447
134,Exp1,d11032021,GCq3m,rating,14.0,54.0,Kupka1.jpg,3.96,2.0,0.08271331435021485,-1.014267060532084
135,Exp1,d11032021,GCq3m,rating,15.0,2.0,Dekob1.jpg,10.478,30.0,4.7024680952816915,1.694745120221336
136,Exp1,d11032021,GCq3m,rating,16.0,50.0,Gorke1.jpg,5.043,8.0,0.850309881970465,-0.4337644503706368
137,Exp1,d11032021,GCq3m,rating,17.0,5.0,Kupb1n.jpg,4.102,15.0,0.1833584783410512,0.2434885948177182
138,Exp1,d11032021,GCq3m,rating,18.0,13.0,Picak1.jpg,3.951,7.0,0.07633439550572531,-0.5305148853975447
139,Exp1,d11032021,GCq3m,rating,19.0,31.0,Maca1n.jpg,4.588,31.0,0.5278200959434901,1.7914955552482439
140,Exp1,d11032021,GCq3m,rating,20.0,56.0,Luisc1.jpg,4.769,14.0,0.6561072415937812,0.14673815979081034
141,Exp1,d11032021,GCq3m,rating,21.0,17.0,Picab1.jpg,3.29,14.0,-0.3921617551840118,0.14673815979081034
142,Exp1,d11032021,GCq3m,rating,22.0,16.0,Lewa1n.jpg,3.657,32.0,-0.13204362008093537,1.8882459902751518
143,Exp1,d11032021,GCq3m,rating,23.0,8.0,Klina1.jpg,2.797,9.0,-0.7415847541099427,-0.337014015343729
144,Exp1,d11032021,GCq3m,rating,24.0,7.0,Pica1n.jpg,3.352,19.0,-0.34821809203308346,0.6304903349253497
145,Exp1,d11032021,GCq3m,rating,25.0,9.0,Lassc1.jpg,2.86,0.0,-0.6969323221985156,-1.2077679305858997
146,Exp1,d11032021,GCq3m,rating,26.0,32.0,Macka1.jpg,3.16,12.0,-0.48430169404886164,-0.04676271026300539
147,Exp1,d11032021,GCq3m,rating,27.0,24.0,Dekoa1.jpg,3.232,4.0,-0.4332703432929447,-0.8207661904782683
148,Exp1,d11032021,GCq3m,rating,28.0,20.0,Gorc1n.jpg,2.916,4.0,-0.6572412716105802,-0.8207661904782683
149,Exp1,d11032021,GCq3m,rating,29.0,51.0,Gora1n.jpg,3.015,6.0,-0.5870731643211943,-0.6272653204244526
150,Exp1,d11032021,GCq3m,rating,30.0,27.0,Vinb1n.jpg,2.442,6.0,-0.9931976640870329,-0.6272653204244526
151,Exp1,d11032021,GCq3m,rating,31.0,1.0,Lewia1.jpg,3.727,9.0,-0.08242980684601629,-0.337014015343729
152,Exp1,d11032021,GCq3m,rating,32.0,10.0,Stera1.jpg,3.314,8.0,-0.37515130493203946,-0.4337644503706368
153,Exp1,d11032021,GCq3m,rating,33.0,38.0,Lasc1n.jpg,2.512,5.0,-0.9435838508521138,-0.7240157554513604
154,Exp1,d11032021,GCq3m,rating,34.0,39.0,Dekb1n.jpg,9.223,5.0,3.8129633008556407,-0.7240157554513604
155,Exp1,d11032021,GCq3m,rating,35.0,41.0,Vincb1.jpg,5.084,10.0,0.8793694011509173,-0.24026358031682113
156,Exp1,d11032021,GCq3m,rating,36.0,33.0,Kupc1n.jpg,3.272,8.0,-0.4049195928729912,-0.4337644503706368
157,Exp1,d11032021,GCq3m,rating,37.0,53.0,Gorka1.jpg,3.241,8.0,-0.4268914244484552,-0.4337644503706368
158,Exp1,d11032021,GCq3m,rating,38.0,59.0,Kraa1n.jpg,3.0,12.0,-0.5977046957286771,-0.04676271026300539
159,Exp1,d11032021,GCq3m,rating,39.0,42.0,Picc1n.jpg,3.049,5.0,-0.5629750264642337,-0.7240157554513604
160,Exp1,d11032021,GCq3m,rating,40.0,58.0,Mackc1.jpg,3.475,2.0,-0.2610395344917253,-1.014267060532084
161,Exp1,d11032021,GCq3m,rating,41.0,40.0,Krab1n.jpg,3.617,5.0,-0.16039437050088923,-0.7240157554513604
162,Exp1,d11032021,GCq3m,rating,42.0,29.0,Clifb1.jpg,3.554,14.0,-0.20504680241231665,0.14673815979081034
163,Exp1,d11032021,GCq3m,rating,43.0,49.0,Hinda1.jpg,3.03,32.0,-0.5764416329137119,1.8882459902751518
164,Exp1,d11032021,GCq3m,rating,44.0,34.0,Monb1n.jpg,3.233,11.0,-0.432561574532446,-0.14351314528991324
165,Exp1,d11032021,GCq3m,rating,45.0,14.0,Kupkb1.jpg,3.02,13.0,-0.5835293205187002,0.04998772476390248
166,Exp1,d11032021,GCq3m,rating,46.0,44.0,Lassf1.jpg,4.06,11.0,0.1535901904000992,-0.14351314528991324
167,Exp1,d11032021,GCq3m,rating,47.0,52.0,Picaa1.jpg,5.567,26.0,1.2217047124718603,1.3077433801137046
168,Exp1,d11032021,GCq3m,rating,48.0,18.0,Krasb1.jpg,4.062,2.0,0.15500772792109735,-1.014267060532084
169,Exp1,d11032021,GCq3m,rating,49.0,21.0,Lewb1n.jpg,3.184,8.0,-0.46729124379688936,-0.4337644503706368
170,Exp1,d11032021,GCq3m,rating,50.0,3.0,Fogeg1.jpg,3.877,18.0,0.02388550722881052,0.5337398998984418
171,Exp1,d11032021,GCq3m,rating,51.0,35.0,Wdeka1.jpg,3.84,5.0,-0.0023389369096467206,-0.7240157554513604
172,Exp1,d11032021,GCq3m,rating,52.0,4.0,Mackb1.jpg,3.8,5.0,-0.030689687329600576,-0.7240157554513604
173,Exp1,d11032021,GCq3m,rating,53.0,26.0,Clib1n.jpg,6.052,12.0,1.5654575613138,-0.04676271026300539
174,Exp1,d11032021,GCq3m,rating,54.0,48.0,Picb1n.jpg,5.751,10.0,1.352118164403648,-0.24026358031682113
175,Exp1,d11032021,GCq3m,rating,55.0,15.0,Clia1n.jpg,5.65,4.0,1.2805325195932646,-0.8207661904782683
176,Exp1,d11032021,GCq3m,rating,56.0,25.0,Clifa1.jpg,3.394,8.0,-0.31844980409213175,-0.4337644503706368
177,Exp1,d11032021,GCq3m,rating,57.0,12.0,Kupkc1.jpg,4.658,10.0,0.5774339091784095,-0.24026358031682113
178,Exp1,d11032021,GCq3m,rating,58.0,6.0,Wdekc1.jpg,3.385,5.0,-0.32482872293662163,-0.7240157554513604
179,Exp1,d11032021,GCq3m,rating,59.0,28.0,Krasa1.jpg,3.453,8.0,-0.27663244722270003,-0.4337644503706368
180,Exp1,d11032021,qBGkp,rating,0.0,49.0,Hinda1.jpg,3.241,5.0,-0.09220372183195269,-0.4728738811968869
181,Exp1,d11032021,qBGkp,rating,1.0,48.0,Picb1n.jpg,2.521,30.0,-0.40628673579981056,1.0894847571188186
182,Exp1,d11032021,qBGkp,rating,2.0,34.0,Monb1n.jpg,3.634,18.0,0.07923325662550292,0.33955261072728005
183,Exp1,d11032021,qBGkp,rating,3.0,45.0,Klia1n.jpg,2.509,2.0,-0.41152145269927487,-0.6603569177947716
184,Exp1,d11032021,qBGkp,rating,4.0,31.0,Maca1n.jpg,3.419,9.0,-0.014555421156565657,-0.222896499066374
185,Exp1,d11032021,qBGkp,rating,5.0,23.0,Lewib1.jpg,2.806,56.0,-0.2819622094375335,2.714337740967153
186,Exp1,d11032021,qBGkp,rating,6.0,27.0,Vinb1n.jpg,2.388,1.0,-0.4643048481022065,-0.7228512633273998
187,Exp1,d11032021,qBGkp,rating,7.0,3.0,Fogeg1.jpg,3.204,1.0,-0.10834409893863424,-0.7228512633273998
188,Exp1,d11032021,qBGkp,rating,8.0,38.0,Lasc1n.jpg,2.852,0.0,-0.26189579465625373,-0.785345608860028
189,Exp1,d11032021,qBGkp,rating,9.0,24.0,Dekoa1.jpg,3.319,20.0,-0.058178061985434834,0.4645413017925365
190,Exp1,d11032021,qBGkp,rating,10.0,26.0,Clib1n.jpg,2.557,20.0,-0.39058258510141763,0.4645413017925365
191,Exp1,d11032021,qBGkp,rating,11.0,54.0,Kupka1.jpg,12.125,13.0,3.783231689404781,0.027080883064138913
192,Exp1,d11032021,qBGkp,rating,12.0,14.0,Kupkb1.jpg,2.806,26.0,-0.2819622094375335,0.8395073749883059
193,Exp1,d11032021,qBGkp,rating,13.0,42.0,Picc1n.jpg,2.59,36.0,-0.37618711362789087,1.4644508303145882
194,Exp1,d11032021,qBGkp,rating,14.0,40.0,Krab1n.jpg,2.581,5.0,-0.38011315130248907,-0.4728738811968869
195,Exp1,d11032021,qBGkp,rating,15.0,2.0,Dekob1.jpg,2.205,0.0,-0.5441342808190369,-0.785345608860028
196,Exp1,d11032021,qBGkp,rating,16.0,35.0,Wdeka1.jpg,3.069,0.0,-0.16723466405760767,-0.785345608860028
197,Exp1,d11032021,qBGkp,rating,17.0,46.0,Deka1n.jpg,2.726,6.0,-0.3168603221006288,-0.41037953566425867
198,Exp1,d11032021,qBGkp,rating,18.0,37.0,Mondb1.jpg,2.292,1.0,-0.5061825832979209,-0.7228512633273998
199,Exp1,d11032021,qBGkp,rating,19.0,25.0,Clifa1.jpg,7.581,34.0,1.801018890140968,1.3394621392493316
200,Exp1,d11032021,qBGkp,rating,20.0,18.0,Krasb1.jpg,2.645,8.0,-0.35219466117201276,-0.2853908445990022
201,Exp1,d11032021,qBGkp,rating,21.0,36.0,Gorkf1.jpg,2.181,10.0,-0.5546037146179655,-0.16040215353374576
202,Exp1,d11032021,qBGkp,rating,22.0,17.0,Picab1.jpg,2.429,20.0,-0.4464195653623702,0.4645413017925365
203,Exp1,d11032021,qBGkp,rating,23.0,39.0,Dekb1n.jpg,2.572,2.0,-0.3840391889770872,-0.6603569177947716
204,Exp1,d11032021,qBGkp,rating,24.0,1.0,Lewia1.jpg,3.365,2.0,-0.038111647204154914,-0.6603569177947716
205,Exp1,d11032021,qBGkp,rating,25.0,11.0,Wdekb1.jpg,1.869,2.0,-0.6907063540040372,-0.6603569177947716
206,Exp1,d11032021,qBGkp,rating,26.0,19.0,Macc1n.jpg,1.982,18.0,-0.6414127698674151,0.33955261072728005
207,Exp1,d11032021,qBGkp,rating,27.0,57.0,Lewc1n.jpg,2.59,4.0,-0.37618711362789087,-0.5353682267295151
208,Exp1,d11032021,qBGkp,rating,28.0,9.0,Lassc1.jpg,2.964,0.0,-0.21303843692792027,-0.785345608860028
209,Exp1,d11032021,qBGkp,rating,29.0,28.0,Krasa1.jpg,2.164,1.0,-0.5620195635588733,-0.7228512633273998
210,Exp1,d11032021,qBGkp,rating,30.0,52.0,Picaa1.jpg,3.866,37.0,0.1804377833484794,1.5269451758472163
211,Exp1,d11032021,qBGkp,rating,31.0,0.0,Gorkc1.jpg,1.953,18.0,-0.6540633357077872,0.33955261072728005
212,Exp1,d11032021,qBGkp,rating,32.0,22.0,Macb1n.jpg,2.544,12.0,-0.3962535284091706,-0.035413462468489317
213,Exp1,d11032021,qBGkp,rating,33.0,16.0,Lewa1n.jpg,3.274,4.0,-0.07780825035842591,-0.5353682267295151
214,Exp1,d11032021,qBGkp,rating,34.0,32.0,Macka1.jpg,1.953,16.0,-0.6540633357077872,0.2145639196620236
215,Exp1,d11032021,qBGkp,rating,35.0,5.0,Kupb1n.jpg,3.45,15.0,-0.0010324024996161653,0.15206957412939537
216,Exp1,d11032021,qBGkp,rating,36.0,44.0,Lassf1.jpg,3.033,6.0,-0.18293881475600057,-0.41037953566425867
217,Exp1,d11032021,qBGkp,rating,37.0,12.0,Kupkc1.jpg,2.157,4.0,-0.5650731484168942,-0.5353682267295151
218,Exp1,d11032021,qBGkp,rating,38.0,7.0,Pica1n.jpg,2.517,6.0,-0.40803164143296533,-0.41037953566425867
219,Exp1,d11032021,qBGkp,rating,39.0,20.0,Gorc1n.jpg,2.661,1.0,-0.34521503863939373,-0.7228512633273998
220,Exp1,d11032021,qBGkp,rating,40.0,56.0,Luisc1.jpg,2.381,0.0,-0.4673584329602274,-0.785345608860028
221,Exp1,d11032021,qBGkp,rating,41.0,8.0,Klina1.jpg,2.989,2.0,-0.202132776720703,-0.6603569177947716
222,Exp1,d11032021,qBGkp,rating,42.0,29.0,Clifb1.jpg,5.301,0.0,0.8064226792427516,-0.785345608860028
223,Exp1,d11032021,qBGkp,rating,43.0,15.0,Clia1n.jpg,5.349,20.0,0.8273615468406087,0.4645413017925365
224,Exp1,d11032021,qBGkp,rating,44.0,50.0,Gorke1.jpg,2.725,0.0,-0.3172965485089174,-0.785345608860028
225,Exp1,d11032021,qBGkp,rating,45.0,55.0,Lewic1.jpg,3.46,0.0,0.0033298615832706552,-0.785345608860028
226,Exp1,d11032021,qBGkp,rating,46.0,47.0,Kupkd1.jpg,3.606,0.0,0.06701891719341956,-0.785345608860028
227,Exp1,d11032021,qBGkp,rating,47.0,30.0,Lasse1.jpg,3.14,0.0,-0.1362625890691105,-0.785345608860028
228,Exp1,d11032021,qBGkp,rating,48.0,6.0,Wdekc1.jpg,3.093,32.0,-0.15676523025867906,1.214473448184075
229,Exp1,d11032021,qBGkp,rating,49.0,21.0,Lewb1n.jpg,3.253,63.0,-0.0869690049324884,3.1517981596955504
230,Exp1,d11032021,qBGkp,rating,50.0,51.0,Gora1n.jpg,3.678,12.0,0.09842721859020535,-0.035413462468489317
231,Exp1,d11032021,qBGkp,rating,51.0,43.0,Picac1.jpg,2.469,38.0,-0.4289705090308225,1.5894395213798447
232,Exp1,d11032021,qBGkp,rating,52.0,4.0,Mackb1.jpg,16.269,3.0,5.5909539253531175,-0.5978625722621433
233,Exp1,d11032021,qBGkp,rating,53.0,10.0,Stera1.jpg,5.509,0.0,0.8971577721667994,-0.785345608860028
234,Exp1,d11032021,qBGkp,rating,54.0,58.0,Mackc1.jpg,5.636,30.0,0.9525585260194631,1.0894847571188186
235,Exp1,d11032021,qBGkp,rating,55.0,13.0,Picak1.jpg,4.429,66.0,0.42603325121501273,3.339281196293435
236,Exp1,d11032021,qBGkp,rating,56.0,33.0,Kupc1n.jpg,2.341,0.0,-0.48480748929177486,-0.785345608860028
237,Exp1,d11032021,qBGkp,rating,57.0,59.0,Kraa1n.jpg,3.005,19.0,-0.19515315418808393,0.4020469562599083
238,Exp1,d11032021,qBGkp,rating,58.0,41.0,Vincb1.jpg,3.67,0.0,0.09493740732389583,-0.785345608860028
239,Exp1,d11032021,qBGkp,rating,59.0,53.0,Gorka1.jpg,2.245,0.0,-0.5266852244874893,-0.785345608860028
240,Exp1,d11032021,BcmPt,rating,0.0,53.0,Gorka1.jpg,4.272,72.0,0.31452480768585866,0.9542684647488018
241,Exp1,d11032021,BcmPt,rating,1.0,33.0,Kupc1n.jpg,4.319,31.0,0.35109444393860534,-0.817429967916898
242,Exp1,d11032021,BcmPt,rating,2.0,58.0,Mackc1.jpg,3.9,75.0,0.02508002713220247,1.083904935431658
243,Exp1,d11032021,BcmPt,rating,3.0,46.0,Deka1n.jpg,3.354,58.0,-0.3997502152933247,0.3492982682288068
244,Exp1,d11032021,BcmPt,rating,4.0,30.0,Lasse1.jpg,2.668,34.0,-0.9335112891100128,-0.6877934972340419
245,Exp1,d11032021,BcmPt,rating,5.0,14.0,Kupkb1.jpg,3.331,58.0,-0.4176459947361584,0.3492982682288068
246,Exp1,d11032021,BcmPt,rating,6.0,36.0,Gorkf1.jpg,3.307,60.0,-0.43631985154607167,0.4357225820173775
247,Exp1,d11032021,BcmPt,rating,7.0,26.0,Clib1n.jpg,3.576,87.0,-0.2270170398016268,1.6024508181630823
248,Exp1,d11032021,BcmPt,rating,8.0,3.0,Fogeg1.jpg,3.257,76.0,-0.4752237199000575,1.1271170923259433
249,Exp1,d11032021,BcmPt,rating,9.0,40.0,Krab1n.jpg,4.161,61.0,0.22815821994000923,0.4789347389116629
250,Exp1,d11032021,BcmPt,rating,10.0,41.0,Vincb1.jpg,4.818,78.0,0.7393550501113855,1.213541406114514
251,Exp1,d11032021,BcmPt,rating,11.0,48.0,Picb1n.jpg,3.063,27.0,-0.6261707291135232,-0.9902785954940394
252,Exp1,d11032021,BcmPt,rating,12.0,39.0,Dekb1n.jpg,4.115,11.0,0.19236666105434258,-1.6816731058026053
253,Exp1,d11032021,BcmPt,rating,13.0,31.0,Maca1n.jpg,4.027,32.0,0.12389585275132713,-0.7742178110226127
254,Exp1,d11032021,BcmPt,rating,14.0,4.0,Mackb1.jpg,2.392,63.0,-1.1482606424240158,0.5653590527002336
255,Exp1,d11032021,BcmPt,rating,15.0,13.0,Picak1.jpg,2.784,59.0,-0.8432543145287655,0.39251042512309214
256,Exp1,d11032021,BcmPt,rating,16.0,49.0,Hinda1.jpg,3.148,37.0,-0.5600341529117471,-0.5581570265511858
257,Exp1,d11032021,BcmPt,rating,17.0,8.0,Klina1.jpg,2.858,60.0,-0.785676589364866,0.4357225820173775
258,Exp1,d11032021,BcmPt,rating,18.0,37.0,Mondb1.jpg,2.65,50.0,-0.947516681717448,0.0036010130745238824
259,Exp1,d11032021,BcmPt,rating,19.0,5.0,Kupb1n.jpg,2.452,62.0,-1.1015760003992325,0.5221468958059482
260,Exp1,d11032021,BcmPt,rating,20.0,44.0,Lassf1.jpg,4.027,43.0,0.12389585275132713,-0.29888408518547366
261,Exp1,d11032021,BcmPt,rating,21.0,0.0,Gorkc1.jpg,4.102,2.0,0.1822516552823063,-2.0705825178511734
262,Exp1,d11032021,BcmPt,rating,22.0,34.0,Monb1n.jpg,3.699,28.0,-0.13131352365082136,-0.947066438599754
263,Exp1,d11032021,BcmPt,rating,23.0,32.0,Macka1.jpg,2.869,20.0,-0.7771177383269889,-1.292763693754037
264,Exp1,d11032021,BcmPt,rating,24.0,16.0,Lewa1n.jpg,6.528,50.0,2.0698673478177074,0.0036010130745238824
265,Exp1,d11032021,BcmPt,rating,25.0,6.0,Wdekc1.jpg,4.125,11.0,0.2001474347251396,-1.6816731058026053
266,Exp1,d11032021,BcmPt,rating,26.0,20.0,Gorc1n.jpg,3.11,0.0,-0.5896010928607767,-2.157006831639744
267,Exp1,d11032021,BcmPt,rating,27.0,15.0,Clia1n.jpg,7.848,33.0,3.0969294723629384,-0.7310056541283273
268,Exp1,d11032021,BcmPt,rating,28.0,12.0,Kupkc1.jpg,4.76,34.0,0.6942265628207619,-0.6877934972340419
269,Exp1,d11032021,BcmPt,rating,29.0,2.0,Dekob1.jpg,2.453,44.0,-1.100797923032153,-0.2556719282911883
270,Exp1,d11032021,BcmPt,rating,30.0,56.0,Luisc1.jpg,2.7,45.0,-0.9086128133634617,-0.21245977139690292
271,Exp1,d11032021,BcmPt,rating,31.0,22.0,Macb1n.jpg,2.916,40.0,-0.7405481020742424,-0.4285205558683297
272,Exp1,d11032021,BcmPt,rating,32.0,29.0,Clifb1.jpg,3.941,56.0,0.056981199182470944,0.26287395444023604
273,Exp1,d11032021,BcmPt,rating,33.0,28.0,Krasa1.jpg,3.087,39.0,-0.6074968723036099,-0.4717327127626151
274,Exp1,d11032021,BcmPt,rating,34.0,19.0,Macc1n.jpg,3.05,58.0,-0.6362857348855598,0.3492982682288068
275,Exp1,d11032021,BcmPt,rating,35.0,50.0,Gorke1.jpg,3.652,56.0,-0.167883159903568,0.26287395444023604
276,Exp1,d11032021,BcmPt,rating,36.0,17.0,Picab1.jpg,3.636,50.0,-0.18033239777684354,0.0036010130745238824
277,Exp1,d11032021,BcmPt,rating,37.0,1.0,Lewia1.jpg,4.221,74.0,0.27484286196479285,1.0406927785373725
278,Exp1,d11032021,BcmPt,rating,38.0,55.0,Lewic1.jpg,5.1,76.0,0.9587728676278666,1.1271170923259433
279,Exp1,d11032021,BcmPt,rating,39.0,35.0,Wdeka1.jpg,2.829,61.0,-0.8082408330101778,0.4789347389116629
280,Exp1,d11032021,BcmPt,rating,40.0,51.0,Gora1n.jpg,3.343,27.0,-0.40830906633120173,-0.9902785954940394
281,Exp1,d11032021,BcmPt,rating,41.0,47.0,Kupkd1.jpg,5.858,59.0,1.5485555118742946,0.39251042512309214
282,Exp1,d11032021,BcmPt,rating,42.0,25.0,Clifa1.jpg,4.467,97.0,0.4662498942664037,2.034572387105936
283,Exp1,d11032021,BcmPt,rating,43.0,21.0,Lewb1n.jpg,4.697,86.0,0.6452076886947397,1.559238661268797
284,Exp1,d11032021,BcmPt,rating,44.0,10.0,Stera1.jpg,3.309,23.0,-0.43476369681191207,-1.1631272230711809
285,Exp1,d11032021,BcmPt,rating,45.0,54.0,Kupka1.jpg,3.175,20.0,-0.5390260640005948,-1.292763693754037
286,Exp1,d11032021,BcmPt,rating,46.0,27.0,Vinb1n.jpg,2.755,66.0,-0.8658185581740774,0.6949955233830897
287,Exp1,d11032021,BcmPt,rating,47.0,45.0,Klia1n.jpg,3.075,50.0,-0.6168338007085666,0.0036010130745238824
288,Exp1,d11032021,BcmPt,rating,48.0,24.0,Dekoa1.jpg,5.773,60.0,1.4824189356725186,0.4357225820173775
289,Exp1,d11032021,BcmPt,rating,49.0,57.0,Lewc1n.jpg,7.382,68.0,2.7343454193037884,0.7814198371716604
290,Exp1,d11032021,BcmPt,rating,50.0,18.0,Krasb1.jpg,3.928,24.0,0.04686619341043466,-1.1199150661768955
291,Exp1,d11032021,BcmPt,rating,51.0,38.0,Lasc1n.jpg,2.213,31.0,-1.2875364911312857,-0.817429967916898
292,Exp1,d11032021,BcmPt,rating,52.0,23.0,Lewib1.jpg,2.892,69.0,-0.7592219588841557,0.8246319940659458
293,Exp1,d11032021,BcmPt,rating,53.0,59.0,Kraa1n.jpg,7.65,50.0,2.942870153681154,0.0036010130745238824
294,Exp1,d11032021,BcmPt,rating,54.0,43.0,Picac1.jpg,4.502,88.0,0.493482602114194,1.6456629750573677
295,Exp1,d11032021,BcmPt,rating,55.0,9.0,Lassc1.jpg,3.163,30.0,-0.5483629924055515,-0.8606421248111833
296,Exp1,d11032021,BcmPt,rating,56.0,42.0,Picc1n.jpg,3.88,38.0,0.00951847979060805,-0.5149448696569005
297,Exp1,d11032021,BcmPt,rating,57.0,11.0,Wdekb1.jpg,2.978,24.0,-0.6923073053152995,-1.1199150661768955
298,Exp1,d11032021,BcmPt,rating,58.0,7.0,Pica1n.jpg,3.48,74.0,-0.30171246704128,1.0406927785373725
299,Exp1,d11032021,BcmPt,rating,59.0,52.0,Picaa1.jpg,6.441,100.0,2.0021746168817716,2.164208857788792
300,Exp1,d11032021,8gPGn,rating,0.0,3.0,Fogeg1.jpg,4.068,74.0,0.716760409534979,0.8585009530444964
301,Exp1,d11032021,8gPGn,rating,1.0,36.0,Gorkf1.jpg,2.752,89.0,-0.7602707238231111,1.357629414116878
302,Exp1,d11032021,8gPGn,rating,2.0,57.0,Lewc1n.jpg,3.186,40.0,-0.27316471175820883,-0.2728568920529021
303,Exp1,d11032021,8gPGn,rating,3.0,58.0,Mackc1.jpg,2.883,76.0,-0.6132410289371611,0.925051414520814
304,Exp1,d11032021,8gPGn,rating,4.0,20.0,Gorc1n.jpg,2.719,22.0,-0.7973087385653731,-0.8718110453397601
305,Exp1,d11032021,8gPGn,rating,5.0,11.0,Wdekb1.jpg,3.707,26.0,0.3115869755362934,-0.738710122387125
306,Exp1,d11032021,8gPGn,rating,6.0,21.0,Lewb1n.jpg,3.925,21.0,0.5562623456518433,-0.9050862760779188
307,Exp1,d11032021,8gPGn,rating,7.0,7.0,Pica1n.jpg,2.236,100.0,-1.3394105907021185,1.7236569522366245
308,Exp1,d11032021,8gPGn,rating,8.0,51.0,Gora1n.jpg,3.731,38.0,0.33852371353066585,-0.33940735352921964
309,Exp1,d11032021,8gPGn,rating,9.0,53.0,Gorka1.jpg,3.762,67.0,0.37331700010673047,0.6255743378773849
310,Exp1,d11032021,8gPGn,rating,10.0,39.0,Dekb1n.jpg,2.745,74.0,-0.7681272724048027,0.8585009530444964
311,Exp1,d11032021,8gPGn,rating,11.0,16.0,Lewa1n.jpg,3.051,63.0,-0.4246838629765537,0.49247341492474983
312,Exp1,d11032021,8gPGn,rating,12.0,32.0,Macka1.jpg,2.512,100.0,-1.0296381037668354,1.7236569522366245
313,Exp1,d11032021,8gPGn,rating,13.0,28.0,Krasa1.jpg,4.083,63.0,0.7335958707814624,0.49247341492474983
314,Exp1,d11032021,8gPGn,rating,14.0,19.0,Macc1n.jpg,3.651,39.0,0.24873458688275757,-0.30613212279106083
315,Exp1,d11032021,8gPGn,rating,15.0,43.0,Picac1.jpg,3.371,68.0,-0.06552735638492099,0.6588495686155437
316,Exp1,d11032021,8gPGn,rating,16.0,18.0,Krasb1.jpg,2.782,100.0,-0.7265998013301452,1.7236569522366245
317,Exp1,d11032021,8gPGn,rating,17.0,10.0,Stera1.jpg,3.388,37.0,-0.0464471669722406,-0.37268258426737844
318,Exp1,d11032021,8gPGn,rating,18.0,4.0,Mackb1.jpg,2.703,14.0,-0.8152665638949548,-1.1380128912450302
319,Exp1,d11032021,8gPGn,rating,19.0,33.0,Kupc1n.jpg,2.859,35.0,-0.6401777669315336,-0.439233045743696
320,Exp1,d11032021,8gPGn,rating,20.0,1.0,Lewia1.jpg,3.69,43.0,0.29250678612361297,-0.17303119983842574
321,Exp1,d11032021,8gPGn,rating,21.0,45.0,Klia1n.jpg,2.997,73.0,-0.48529152346389204,0.8252257223063376
322,Exp1,d11032021,8gPGn,rating,22.0,23.0,Lewib1.jpg,2.37,0.0,-1.1890138035668725,-1.6038661215792531
323,Exp1,d11032021,8gPGn,rating,23.0,30.0,Lasse1.jpg,2.234,0.0,-1.3416553188683167,-1.6038661215792531
324,Exp1,d11032021,8gPGn,rating,24.0,37.0,Mondb1.jpg,2.733,75.0,-0.7815956414019889,0.8917761837826551
325,Exp1,d11032021,8gPGn,rating,25.0,6.0,Wdekc1.jpg,3.371,36.0,-0.06552735638492099,-0.4059578150055372
326,Exp1,d11032021,8gPGn,rating,26.0,9.0,Lassc1.jpg,5.139,74.0,1.918812342533851,0.8585009530444964
327,Exp1,d11032021,8gPGn,rating,27.0,40.0,Krab1n.jpg,2.874,68.0,-0.6233423056850507,0.6588495686155437
328,Exp1,d11032021,8gPGn,rating,28.0,0.0,Gorkc1.jpg,2.842,17.0,-0.659257956344214,-1.038187199030554
329,Exp1,d11032021,8gPGn,rating,29.0,48.0,Picb1n.jpg,2.341,80.0,-1.221562361976739,1.058152337473449
330,Exp1,d11032021,8gPGn,rating,30.0,15.0,Clia1n.jpg,4.847,68.0,1.591082030268986,0.6588495686155437
331,Exp1,d11032021,8gPGn,rating,31.0,14.0,Kupkb1.jpg,3.036,65.0,-0.44151932422303664,0.5590238764010674
332,Exp1,d11032021,8gPGn,rating,32.0,26.0,Clib1n.jpg,2.494,26.0,-1.0498406572626147,-0.738710122387125
333,Exp1,d11032021,8gPGn,rating,33.0,46.0,Deka1n.jpg,2.89,0.0,-0.605384480355469,-1.6038661215792531
334,Exp1,d11032021,8gPGn,rating,34.0,29.0,Clifb1.jpg,3.286,36.0,-0.16092830344832343,-0.4059578150055372
335,Exp1,d11032021,8gPGn,rating,35.0,25.0,Clifa1.jpg,3.393,21.0,-0.040835346556746456,-0.9050862760779188
336,Exp1,d11032021,8gPGn,rating,36.0,13.0,Picak1.jpg,2.791,100.0,-0.7164985245822557,1.7236569522366245
337,Exp1,d11032021,8gPGn,rating,37.0,31.0,Maca1n.jpg,3.662,74.0,0.26108059179684506,0.8585009530444964
338,Exp1,d11032021,8gPGn,rating,38.0,50.0,Gorke1.jpg,3.098,0.0,-0.37193275107090795,-1.6038661215792531
339,Exp1,d11032021,8gPGn,rating,39.0,54.0,Kupka1.jpg,3.053,71.0,-0.4224391348103562,0.75867526083002
340,Exp1,d11032021,8gPGn,rating,40.0,41.0,Vincb1.jpg,4.015,29.0,0.6572751131307398,-0.6388844301726486
341,Exp1,d11032021,8gPGn,rating,41.0,2.0,Dekob1.jpg,4.216,68.0,0.8828702938336098,0.6588495686155437
342,Exp1,d11032021,8gPGn,rating,42.0,8.0,Klina1.jpg,2.673,38.0,-0.8489374863879202,-0.33940735352921964
343,Exp1,d11032021,8gPGn,rating,43.0,55.0,Lewic1.jpg,5.857,73.0,2.7246697541988274,0.8252257223063376
344,Exp1,d11032021,8gPGn,rating,44.0,27.0,Vinb1n.jpg,3.739,72.0,0.3475026261954567,0.7919504915681789
345,Exp1,d11032021,8gPGn,rating,45.0,24.0,Dekoa1.jpg,5.663,70.0,2.50693112207765,0.7254000300918613
346,Exp1,d11032021,8gPGn,rating,46.0,42.0,Picc1n.jpg,5.582,68.0,2.4160196313466424,0.6588495686155437
347,Exp1,d11032021,8gPGn,rating,47.0,12.0,Kupkc1.jpg,2.77,35.0,-0.7400681703273315,-0.439233045743696
348,Exp1,d11032021,8gPGn,rating,48.0,44.0,Lassf1.jpg,3.189,0.0,-0.2697976195089121,-1.6038661215792531
349,Exp1,d11032021,8gPGn,rating,49.0,34.0,Monb1n.jpg,4.244,19.0,0.9142964881603772,-0.9716367375542364
350,Exp1,d11032021,8gPGn,rating,50.0,52.0,Picaa1.jpg,3.666,71.0,0.2655700481292405,0.75867526083002
351,Exp1,d11032021,8gPGn,rating,51.0,47.0,Kupkd1.jpg,5.002,27.0,1.7650484631493075,-0.7054348916489662
352,Exp1,d11032021,8gPGn,rating,52.0,5.0,Kupb1n.jpg,3.59,71.0,0.18027037781372762,0.75867526083002
353,Exp1,d11032021,8gPGn,rating,53.0,17.0,Picab1.jpg,2.32,0.0,-1.2451320077218153,-1.6038661215792531
354,Exp1,d11032021,8gPGn,rating,54.0,59.0,Kraa1n.jpg,5.57,84.0,2.4025512623494567,1.1912532604260841
355,Exp1,d11032021,8gPGn,rating,55.0,38.0,Lasc1n.jpg,3.812,31.0,0.4294352042616729,-0.5723339686963311
356,Exp1,d11032021,8gPGn,rating,56.0,49.0,Hinda1.jpg,2.863,0.0,-0.6356883105991382,-1.6038661215792531
357,Exp1,d11032021,8gPGn,rating,57.0,56.0,Luisc1.jpg,2.647,0.0,-0.8781189525484906,-1.6038661215792531
358,Exp1,d11032021,8gPGn,rating,58.0,22.0,Macb1n.jpg,3.378,34.0,-0.05767080780322889,-0.4725082764818547
359,Exp1,d11032021,8gPGn,rating,59.0,35.0,Wdeka1.jpg,3.712,29.0,0.317198795951788,-0.6388844301726486
360,Exp1,d11042021,339Ys,rating,0.0,13.0,Picak1.jpg,3.749,83.0,-0.45560919597753347,0.838417861378349
361,Exp1,d11042021,339Ys,rating,1.0,15.0,Clia1n.jpg,4.676,66.0,0.24686304109820892,0.29681797625743966
362,Exp1,d11042021,339Ys,rating,2.0,46.0,Deka1n.jpg,3.436,37.0,-0.6927977722501414,-0.6270877101252881
363,Exp1,d11042021,339Ys,rating,3.0,41.0,Vincb1.jpg,4.434,97.0,0.06347762429957932,1.2844412961838036
364,Exp1,d11042021,339Ys,rating,4.0,57.0,Lewc1n.jpg,4.683,24.0,0.2521675779477558,-1.0412523281589245
365,Exp1,d11042021,339Ys,rating,5.0,43.0,Picac1.jpg,4.36,63.0,0.007401091890081115,0.20124152594198505
366,Exp1,d11042021,339Ys,rating,6.0,26.0,Clib1n.jpg,3.417,100.0,-0.7071958008417694,1.3800177464992582
367,Exp1,d11042021,339Ys,rating,7.0,44.0,Lassf1.jpg,2.966,72.0,-1.048959532148306,0.48797087688834884
368,Exp1,d11042021,339Ys,rating,8.0,49.0,Hinda1.jpg,3.015,92.0,-1.0118277742014763,1.1251472123247128
369,Exp1,d11042021,339Ys,rating,9.0,24.0,Dekoa1.jpg,3.125,6.0,-0.9284707665657356,-1.6147110300516523
370,Exp1,d11042021,339Ys,rating,10.0,30.0,Lasse1.jpg,2.984,14.0,-1.035319294535185,-1.3598404958771066
371,Exp1,d11042021,339Ys,rating,11.0,35.0,Wdeka1.jpg,3.927,59.0,-0.3207224018033349,0.07380625885471226
372,Exp1,d11042021,339Ys,rating,12.0,6.0,Wdekc1.jpg,4.122,8.0,-0.1729531609945219,-1.5509933965080158
373,Exp1,d11042021,339Ys,rating,13.0,42.0,Picc1n.jpg,6.716,36.0,1.7927566372519461,-0.6589465268971063
374,Exp1,d11042021,339Ys,rating,14.0,36.0,Gorkf1.jpg,3.139,18.0,-0.9178616928666414,-1.2324052287898337
375,Exp1,d11042021,339Ys,rating,15.0,48.0,Picb1n.jpg,3.101,76.0,-0.9466577500498972,0.6154061439756217
376,Exp1,d11042021,339Ys,rating,16.0,56.0,Luisc1.jpg,4.264,62.0,-0.0653468420465654,0.16938270917016685
377,Exp1,d11042021,339Ys,rating,17.0,39.0,Dekb1n.jpg,3.611,84.0,-0.5601843510114627,0.8702766781501672
378,Exp1,d11042021,339Ys,rating,18.0,31.0,Maca1n.jpg,3.743,94.0,-0.46015594184857406,1.188864845868349
379,Exp1,d11042021,339Ys,rating,19.0,33.0,Kupc1n.jpg,5.012,40.0,0.501480809876471,-0.5315112598098335
380,Exp1,d11042021,339Ys,rating,20.0,14.0,Kupkb1.jpg,2.846,100.0,-1.1398944495691143,1.3800177464992582
381,Exp1,d11042021,339Ys,rating,21.0,52.0,Picaa1.jpg,3.828,79.0,-0.3957437086755017,0.7109825942910762
382,Exp1,d11042021,339Ys,rating,22.0,3.0,Fogeg1.jpg,3.828,95.0,-0.3957437086755017,1.2207236626401674
383,Exp1,d11042021,339Ys,rating,23.0,58.0,Mackc1.jpg,4.47,58.0,0.09075809952582142,0.04194744208289407
384,Exp1,d11042021,339Ys,rating,24.0,19.0,Macc1n.jpg,3.338,93.0,-0.7670612881438011,1.157006029096531
385,Exp1,d11042021,339Ys,rating,25.0,20.0,Gorc1n.jpg,3.341,3.0,-0.7647879152082809,-1.7102874803671069
386,Exp1,d11042021,339Ys,rating,26.0,12.0,Kupkc1.jpg,3.677,22.0,-0.5101701464300183,-1.104969961702561
387,Exp1,d11042021,339Ys,rating,27.0,25.0,Clifa1.jpg,3.565,62.0,-0.5950427360227727,0.16938270917016685
388,Exp1,d11042021,339Ys,rating,28.0,29.0,Clifb1.jpg,5.458,21.0,0.8394555862904749,-1.1368287784743791
389,Exp1,d11042021,339Ys,rating,29.0,45.0,Klia1n.jpg,4.975,61.0,0.473442543671722,0.13752389239834867
390,Exp1,d11042021,339Ys,rating,30.0,2.0,Dekob1.jpg,4.858,17.0,0.3847809991864341,-1.264264045561652
391,Exp1,d11042021,339Ys,rating,31.0,10.0,Stera1.jpg,10.41,39.0,4.592036511855821,-0.5633700765816517
392,Exp1,d11042021,339Ys,rating,32.0,7.0,Pica1n.jpg,4.864,81.0,0.3893277450574747,0.7747002278347126
393,Exp1,d11042021,339Ys,rating,33.0,59.0,Kraa1n.jpg,5.489,68.0,0.8629471066241834,0.360535609801076
394,Exp1,d11042021,339Ys,rating,34.0,27.0,Vinb1n.jpg,3.854,90.0,-0.3760411432343264,1.0614295787810764
395,Exp1,d11042021,339Ys,rating,35.0,0.0,Gorkc1.jpg,6.437,31.0,1.5813329542485675,-0.8182406107561973
396,Exp1,d11042021,339Ys,rating,36.0,37.0,Mondb1.jpg,3.462,61.0,-0.6730952068089661,0.13752389239834867
397,Exp1,d11042021,339Ys,rating,37.0,5.0,Kupb1n.jpg,3.587,94.0,-0.5783713344956244,1.188864845868349
398,Exp1,d11042021,339Ys,rating,38.0,55.0,Lewic1.jpg,4.086,78.0,-0.200233636220764,0.679123777519258
399,Exp1,d11042021,339Ys,rating,39.0,1.0,Lewia1.jpg,5.449,87.0,0.832635467483914,0.9658531284656218
400,Exp1,d11042021,339Ys,rating,40.0,38.0,Lasc1n.jpg,4.604,7.0,0.19230209064572404,-1.582852213279834
401,Exp1,d11042021,339Ys,rating,41.0,9.0,Lassc1.jpg,4.865,33.0,0.3900855360359817,-0.7545229772125609
402,Exp1,d11042021,339Ys,rating,42.0,54.0,Kupka1.jpg,3.847,67.0,-0.38134568008387365,0.32867679302925784
403,Exp1,d11042021,339Ys,rating,43.0,34.0,Monb1n.jpg,6.775,70.0,1.8374663049838436,0.4242532433447124
404,Exp1,d11042021,339Ys,rating,44.0,16.0,Lewa1n.jpg,4.593,63.0,0.18396638988214986,0.20124152594198505
405,Exp1,d11042021,339Ys,rating,45.0,17.0,Picab1.jpg,3.622,37.0,-0.5518486502478889,-0.6270877101252881
406,Exp1,d11042021,339Ys,rating,46.0,11.0,Wdekb1.jpg,4.138,13.0,-0.16082850533841414,-1.3916993126489248
407,Exp1,d11042021,339Ys,rating,47.0,40.0,Krab1n.jpg,4.734,13.0,0.29081491785159935,-1.3916993126489248
408,Exp1,d11042021,339Ys,rating,48.0,47.0,Kupkd1.jpg,4.538,78.0,0.14228788606427972,0.679123777519258
409,Exp1,d11042021,339Ys,rating,49.0,32.0,Macka1.jpg,7.317,32.0,2.2481890153344932,-0.786381793984379
410,Exp1,d11042021,339Ys,rating,50.0,8.0,Klina1.jpg,2.775,65.0,-1.1936976090430924,0.26495915948562143
411,Exp1,d11042021,339Ys,rating,51.0,28.0,Krasa1.jpg,5.013,3.0,0.5022386008549781,-1.7102874803671069
412,Exp1,d11042021,339Ys,rating,52.0,21.0,Lewb1n.jpg,6.902,100.0,1.9337057592541986,1.3800177464992582
413,Exp1,d11042021,339Ys,rating,53.0,22.0,Macb1n.jpg,5.099,83.0,0.5674086250065574,0.838417861378349
414,Exp1,d11042021,339Ys,rating,54.0,53.0,Gorka1.jpg,3.14,90.0,-0.9171039018881345,1.0614295787810764
415,Exp1,d11042021,339Ys,rating,55.0,50.0,Gorke1.jpg,3.775,13.0,-0.4359066305363586,-1.3916993126489248
416,Exp1,d11042021,339Ys,rating,56.0,4.0,Mackb1.jpg,4.317,72.0,-0.025183920185708558,0.48797087688834884
417,Exp1,d11042021,339Ys,rating,57.0,18.0,Krasb1.jpg,3.459,13.0,-0.6753685797444864,-1.3916993126489248
418,Exp1,d11042021,339Ys,rating,58.0,23.0,Lewib1.jpg,3.731,100.0,-0.4692494335906549,1.3800177464992582
419,Exp1,d11042021,339Ys,rating,59.0,51.0,Gora1n.jpg,3.468,78.0,-0.6685484609379259,0.679123777519258
420,Exp1,d11032021,JY6WO,rating,0.0,22.0,Macb1n.jpg,4.534,27.0,0.46448897733856803,-0.274117761784538
421,Exp1,d11032021,JY6WO,rating,1.0,37.0,Mondb1.jpg,3.518,73.0,-0.014934805844227822,2.004692547026682
422,Exp1,d11032021,JY6WO,rating,2.0,59.0,Kraa1n.jpg,3.562,50.0,0.0058276414589641425,0.8652873926210721
423,Exp1,d11032021,JY6WO,rating,3.0,6.0,Wdekc1.jpg,4.16,21.0,0.2880081752614366,-0.5713538890207841
424,Exp1,d11032021,JY6WO,rating,4.0,26.0,Clib1n.jpg,3.572,25.0,0.010546379482416966,-0.37319647086328667
425,Exp1,d11032021,JY6WO,rating,5.0,10.0,Stera1.jpg,3.236,19.0,-0.1480032181055942,-0.6704325980995328
426,Exp1,d11032021,JY6WO,rating,6.0,4.0,Mackb1.jpg,3.382,72.0,-0.0791096429631846,1.9551531924873078
427,Exp1,d11032021,JY6WO,rating,7.0,2.0,Dekob1.jpg,2.483,28.0,-0.5033241912715837,-0.22457840724516362
428,Exp1,d11032021,JY6WO,rating,8.0,16.0,Lewa1n.jpg,3.114,29.0,-0.20557182199171747,-0.1750390527057893
429,Exp1,d11032021,JY6WO,rating,9.0,1.0,Lewia1.jpg,2.832,33.0,-0.33864023425308404,0.023118365451708124
430,Exp1,d11032021,JY6WO,rating,10.0,0.0,Gorkc1.jpg,3.327,25.0,-0.10506270209217461,-0.37319647086328667
431,Exp1,d11032021,JY6WO,rating,11.0,3.0,Fogeg1.jpg,3.001,75.0,-0.25889356165673316,2.1037712561054307
432,Exp1,d11032021,JY6WO,rating,12.0,46.0,Deka1n.jpg,2.595,21.0,-0.45047432540891325,-0.5713538890207841
433,Exp1,d11032021,JY6WO,rating,13.0,52.0,Picaa1.jpg,4.655,37.0,0.5215857074223461,0.22127578360920552
434,Exp1,d11032021,JY6WO,rating,14.0,36.0,Gorkf1.jpg,3.001,26.0,-0.25889356165673316,-0.3236571163239123
435,Exp1,d11032021,JY6WO,rating,15.0,40.0,Krab1n.jpg,2.967,61.0,-0.2749372709364723,1.41022029255419
436,Exp1,d11032021,JY6WO,rating,16.0,17.0,Picab1.jpg,2.563,73.0,-0.4655742870839619,2.004692547026682
437,Exp1,d11032021,JY6WO,rating,17.0,29.0,Clifb1.jpg,2.933,16.0,-0.29098098021621166,-0.8190506617176558
438,Exp1,d11032021,JY6WO,rating,18.0,45.0,Klia1n.jpg,2.563,21.0,-0.4655742870839619,-0.5713538890207841
439,Exp1,d11032021,JY6WO,rating,19.0,11.0,Wdekb1.jpg,4.372,15.0,0.38804542135863407,-0.8685900162570303
440,Exp1,d11032021,JY6WO,rating,20.0,31.0,Maca1n.jpg,4.374,26.0,0.3889891689633245,-0.3236571163239123
441,Exp1,d11032021,JY6WO,rating,21.0,33.0,Kupc1n.jpg,2.416,13.0,-0.5349397360287169,-0.9676687253357789
442,Exp1,d11032021,JY6WO,rating,22.0,44.0,Lassf1.jpg,3.0,18.0,-0.25936543545907836,-0.7199719526389071
443,Exp1,d11032021,JY6WO,rating,23.0,48.0,Picb1n.jpg,5.769,78.0,1.0472531232349784,2.252389319723554
444,Exp1,d11032021,JY6WO,rating,24.0,19.0,Macc1n.jpg,2.695,25.0,-0.40328694517438624,-0.37319647086328667
445,Exp1,d11032021,JY6WO,rating,25.0,51.0,Gora1n.jpg,2.765,18.0,-0.3702557790102171,-0.7199719526389071
446,Exp1,d11032021,JY6WO,rating,26.0,25.0,Clifa1.jpg,3.732,21.0,0.08604618785766048,-0.5713538890207841
447,Exp1,d11032021,JY6WO,rating,27.0,9.0,Lassc1.jpg,2.473,16.0,-0.5080429292950365,-0.8190506617176558
448,Exp1,d11032021,JY6WO,rating,28.0,23.0,Lewib1.jpg,2.854,62.0,-0.328259010601488,1.4597596470935643
449,Exp1,d11032021,JY6WO,rating,29.0,53.0,Gorka1.jpg,2.136,30.0,-0.6670644006853929,-0.12549969816641493
450,Exp1,d11032021,JY6WO,rating,30.0,13.0,Picak1.jpg,2.9,26.0,-0.30655281569360554,-0.3236571163239123
451,Exp1,d11032021,JY6WO,rating,31.0,30.0,Lasse1.jpg,2.932,24.0,-0.29145285401855686,-0.422735825402661
452,Exp1,d11032021,JY6WO,rating,32.0,54.0,Kupka1.jpg,2.799,18.0,-0.354212069730478,-0.7199719526389071
453,Exp1,d11032021,JY6WO,rating,33.0,38.0,Lasc1n.jpg,2.63,0.0,-0.43395874232682885,-1.6116803343476456
454,Exp1,d11032021,JY6WO,rating,34.0,7.0,Pica1n.jpg,0.268,50.0,-1.5485246634663603,0.8652873926210721
455,Exp1,d11032021,JY6WO,rating,35.0,41.0,Vincb1.jpg,5.61,57.0,0.9722251886620804,1.2120628743966926
456,Exp1,d11032021,JY6WO,rating,36.0,8.0,Klina1.jpg,3.226,13.0,-0.15272195612904702,-0.9676687253357789
457,Exp1,d11032021,JY6WO,rating,37.0,27.0,Vinb1n.jpg,3.507,24.0,-0.020125417670025656,-0.422735825402661
458,Exp1,d11032021,JY6WO,rating,38.0,56.0,Luisc1.jpg,3.102,65.0,-0.21123430761986073,1.6083777107116874
459,Exp1,d11032021,JY6WO,rating,39.0,42.0,Picc1n.jpg,3.27,29.0,-0.13195950882585505,-0.1750390527057893
460,Exp1,d11032021,JY6WO,rating,40.0,24.0,Dekoa1.jpg,10.1,31.0,3.090938561192349,-0.07596034362704057
461,Exp1,d11032021,JY6WO,rating,41.0,20.0,Gorc1n.jpg,2.55,14.0,-0.4717086465144506,-0.9181293707964046
462,Exp1,d11032021,JY6WO,rating,42.0,15.0,Clia1n.jpg,3.586,10.0,0.01715261271525067,-1.1162867889539019
463,Exp1,d11032021,JY6WO,rating,43.0,57.0,Lewc1n.jpg,2.832,11.0,-0.33864023425308404,-1.0667474344145276
464,Exp1,d11032021,JY6WO,rating,44.0,12.0,Kupkc1.jpg,3.709,23.0,0.07519309040371917,-0.4722751799420354
465,Exp1,d11032021,JY6WO,rating,45.0,49.0,Hinda1.jpg,3.777,13.0,0.10728050896319766,-0.9676687253357789
466,Exp1,d11032021,JY6WO,rating,46.0,35.0,Wdeka1.jpg,7.839,32.0,2.0240318940896906,-0.026420989087666227
467,Exp1,d11032021,JY6WO,rating,47.0,39.0,Dekb1n.jpg,15.939,31.0,5.84620969308639,-0.07596034362704057
468,Exp1,d11032021,JY6WO,rating,48.0,55.0,Lewic1.jpg,3.069,26.0,-0.22680614309725466,-0.3236571163239123
469,Exp1,d11032021,JY6WO,rating,49.0,47.0,Kupkd1.jpg,3.405,62.0,-0.0682565455092435,1.4597596470935643
470,Exp1,d11032021,JY6WO,rating,50.0,34.0,Monb1n.jpg,2.63,25.0,-0.43395874232682885,-0.37319647086328667
471,Exp1,d11032021,JY6WO,rating,51.0,18.0,Krasb1.jpg,2.473,15.0,-0.5080429292950365,-0.8685900162570303
472,Exp1,d11032021,JY6WO,rating,52.0,43.0,Picac1.jpg,2.439,68.0,-0.5240866385747757,1.7569957743298104
473,Exp1,d11032021,JY6WO,rating,53.0,28.0,Krasa1.jpg,2.753,26.0,-0.37591826463836037,-0.3236571163239123
474,Exp1,d11032021,JY6WO,rating,54.0,21.0,Lewb1n.jpg,4.036,75.0,0.22949582377062272,2.1037712561054307
475,Exp1,d11032021,JY6WO,rating,55.0,58.0,Mackc1.jpg,2.798,35.0,-0.3546839435328232,0.12219707453045682
476,Exp1,d11032021,JY6WO,rating,56.0,14.0,Kupkb1.jpg,2.078,31.0,-0.6944330812214188,-0.07596034362704057
477,Exp1,d11032021,JY6WO,rating,57.0,5.0,Kupb1n.jpg,2.687,32.0,-0.4070619355931484,-0.026420989087666227
478,Exp1,d11032021,JY6WO,rating,58.0,50.0,Gorke1.jpg,2.483,9.0,-0.5033241912715837,-1.1658261434932764
479,Exp1,d11032021,JY6WO,rating,59.0,32.0,Macka1.jpg,2.968,23.0,-0.27446539713412704,-0.4722751799420354
480,Exp1,d11032021,pxiIK,rating,0.0,13.0,Picak1.jpg,2.295,66.0,-0.2947613158718696,0.6214228500558249
481,Exp1,d11032021,pxiIK,rating,1.0,23.0,Lewib1.jpg,1.758,69.0,-0.3764155983702931,0.8009671727043779
482,Exp1,d11032021,pxiIK,rating,2.0,10.0,Stera1.jpg,27.105,73.0,3.47775776939049,1.0403596029024484
483,Exp1,d11032021,pxiIK,rating,3.0,43.0,Picac1.jpg,2.367,67.0,-0.28381325564861726,0.6812709576053426
484,Exp1,d11032021,pxiIK,rating,4.0,18.0,Krasb1.jpg,2.097,70.0,-0.32486848148581343,0.8608152802538955
485,Exp1,d11032021,pxiIK,rating,5.0,50.0,Gorke1.jpg,2.271,24.0,-0.29841066927962034,-1.8921976670239165
486,Exp1,d11032021,pxiIK,rating,6.0,47.0,Kupkd1.jpg,3.47,76.0,-0.11609505528407141,1.2199039255510014
487,Exp1,d11032021,pxiIK,rating,7.0,3.0,Fogeg1.jpg,1.613,50.0,-0.3984637752087873,-0.3361468707364575
488,Exp1,d11032021,pxiIK,rating,8.0,1.0,Lewia1.jpg,2.319,77.0,-0.2911119624641188,1.279752033100519
489,Exp1,d11032021,pxiIK,rating,9.0,53.0,Gorka1.jpg,2.929,18.0,-0.1983575633504534,-2.2512863123210223
490,Exp1,d11032021,pxiIK,rating,10.0,35.0,Wdeka1.jpg,2.773,67.0,-0.22207836050083338,0.6812709576053426
491,Exp1,d11032021,pxiIK,rating,11.0,59.0,Kraa1n.jpg,1.841,69.0,-0.36379491783515494,0.8009671727043779
492,Exp1,d11032021,pxiIK,rating,12.0,33.0,Kupc1n.jpg,2.305,35.0,-0.2932407519519734,-1.2338684839792222
493,Exp1,d11032021,pxiIK,rating,13.0,57.0,Lewc1n.jpg,2.27,70.0,-0.29856272567160996,0.8608152802538955
494,Exp1,d11032021,pxiIK,rating,14.0,20.0,Gorc1n.jpg,3.16,31.0,-0.1632325368008522,-1.473260914177293
495,Exp1,d11032021,pxiIK,rating,15.0,24.0,Dekoa1.jpg,2.398,52.0,-0.2790995074969392,-0.2164506556374222
496,Exp1,d11032021,pxiIK,rating,16.0,5.0,Kupb1n.jpg,2.661,70.0,-0.2391086764036703,0.8608152802538955
497,Exp1,d11032021,pxiIK,rating,17.0,6.0,Wdekc1.jpg,2.377,34.0,-0.2822926917287211,-1.2937165915287399
498,Exp1,d11032021,pxiIK,rating,18.0,8.0,Klina1.jpg,2.697,35.0,-0.23363464629204417,-1.2338684839792222
499,Exp1,d11032021,pxiIK,rating,19.0,38.0,Lasc1n.jpg,2.184,40.0,-0.31163957538271686,-0.934627946231634
500,Exp1,d11032021,pxiIK,rating,20.0,30.0,Lasse1.jpg,2.242,27.0,-0.3028203046473192,-1.7126533443753635
501,Exp1,d11032021,pxiIK,rating,21.0,45.0,Klia1n.jpg,2.155,36.0,-0.31604921075041575,-1.1740203764297046
502,Exp1,d11032021,pxiIK,rating,22.0,58.0,Mackc1.jpg,29.297,50.0,3.8110653806317267,-0.3361468707364575
503,Exp1,d11032021,pxiIK,rating,23.0,7.0,Pica1n.jpg,2.181,61.0,-0.3120957445586857,0.3221823123082367
504,Exp1,d11032021,pxiIK,rating,24.0,25.0,Clifa1.jpg,2.048,58.0,-0.3323192446933046,0.14263798965968372
505,Exp1,d11032021,pxiIK,rating,25.0,26.0,Clib1n.jpg,2.438,58.0,-0.27301725181735453,0.14263798965968372
506,Exp1,d11032021,pxiIK,rating,26.0,55.0,Lewic1.jpg,3.302,64.0,-0.1416405291383268,0.5017266349567896
507,Exp1,d11032021,pxiIK,rating,27.0,36.0,Gorkf1.jpg,29.326,66.0,3.8154750159994255,0.6214228500558249
508,Exp1,d11032021,pxiIK,rating,28.0,40.0,Krab1n.jpg,2.14,63.0,-0.3183300566302599,0.44187852740727196
509,Exp1,d11032021,pxiIK,rating,29.0,17.0,Picab1.jpg,2.075,65.0,-0.32821372210958494,0.5615747425063072
510,Exp1,d11032021,pxiIK,rating,30.0,51.0,Gora1n.jpg,2.046,62.0,-0.33262335747728383,0.3820304198577543
511,Exp1,d11032021,pxiIK,rating,31.0,52.0,Picaa1.jpg,2.111,58.0,-0.32273969199795877,0.14263798965968372
512,Exp1,d11032021,pxiIK,rating,32.0,12.0,Kupkc1.jpg,1.943,65.0,-0.3482851658522142,0.5615747425063072
513,Exp1,d11032021,pxiIK,rating,33.0,22.0,Macb1n.jpg,2.062,66.0,-0.33019045520545,0.6214228500558249
514,Exp1,d11032021,pxiIK,rating,34.0,0.0,Gorkc1.jpg,2.682,23.0,-0.2359154921718884,-1.952045774573434
515,Exp1,d11032021,pxiIK,rating,35.0,54.0,Kupka1.jpg,2.727,51.0,-0.22907295453235574,-0.27629876318693986
516,Exp1,d11032021,pxiIK,rating,36.0,19.0,Macc1n.jpg,2.394,66.0,-0.2797077330648976,0.6214228500558249
517,Exp1,d11032021,pxiIK,rating,37.0,41.0,Vincb1.jpg,2.177,62.0,-0.3127039701266442,0.3820304198577543
518,Exp1,d11032021,pxiIK,rating,38.0,48.0,Picb1n.jpg,2.15,65.0,-0.31680949271036385,0.5615747425063072
519,Exp1,d11032021,pxiIK,rating,39.0,29.0,Clifb1.jpg,2.204,67.0,-0.30859844754292454,0.6812709576053426
520,Exp1,d11032021,pxiIK,rating,40.0,46.0,Deka1n.jpg,2.589,31.0,-0.2500567366269226,-1.473260914177293
521,Exp1,d11032021,pxiIK,rating,41.0,27.0,Vinb1n.jpg,2.188,28.0,-0.3110313498147584,-1.652805236825846
522,Exp1,d11032021,pxiIK,rating,42.0,56.0,Luisc1.jpg,2.763,35.0,-0.22359892442072957,-1.2338684839792222
523,Exp1,d11032021,pxiIK,rating,43.0,32.0,Macka1.jpg,4.504,71.0,0.04113125403319087,0.9206633878034132
524,Exp1,d11032021,pxiIK,rating,44.0,28.0,Krasa1.jpg,2.624,36.0,-0.24473476290728607,-1.1740203764297046
525,Exp1,d11032021,pxiIK,rating,45.0,31.0,Maca1n.jpg,2.287,65.0,-0.2959777670077865,0.5615747425063072
526,Exp1,d11032021,pxiIK,rating,46.0,21.0,Lewb1n.jpg,7.32,69.0,0.46932205387594805,0.8009671727043779
527,Exp1,d11032021,pxiIK,rating,47.0,42.0,Picc1n.jpg,2.241,66.0,-0.3029723610393088,0.6214228500558249
528,Exp1,d11032021,pxiIK,rating,48.0,49.0,Hinda1.jpg,1.985,65.0,-0.3418987973886503,0.5615747425063072
529,Exp1,d11032021,pxiIK,rating,49.0,16.0,Lewa1n.jpg,2.277,69.0,-0.29749833092768263,0.8009671727043779
530,Exp1,d11032021,pxiIK,rating,50.0,44.0,Lassf1.jpg,2.393,69.0,-0.2798597894568873,0.8009671727043779
531,Exp1,d11032021,pxiIK,rating,51.0,14.0,Kupkb1.jpg,2.8,70.0,-0.2179728379171138,0.8608152802538955
532,Exp1,d11032021,pxiIK,rating,52.0,2.0,Dekob1.jpg,2.047,71.0,-0.33247130108529416,0.9206633878034132
533,Exp1,d11032021,pxiIK,rating,53.0,11.0,Wdekb1.jpg,28.058,68.0,3.6226675109565933,0.7411190651548603
534,Exp1,d11032021,pxiIK,rating,54.0,39.0,Dekb1n.jpg,1.79,70.0,-0.3715497938266254,0.8608152802538955
535,Exp1,d11032021,pxiIK,rating,55.0,37.0,Mondb1.jpg,2.932,80.0,-0.19790139417448455,1.4592963557490721
536,Exp1,d11032021,pxiIK,rating,56.0,34.0,Monb1n.jpg,2.851,37.0,-0.2102179619256434,-1.114172268880187
537,Exp1,d11032021,pxiIK,rating,57.0,4.0,Mackb1.jpg,2.487,36.0,-0.26556648860986337,-1.1740203764297046
538,Exp1,d11032021,pxiIK,rating,58.0,9.0,Lassc1.jpg,2.585,35.0,-0.2506649621948811,-1.2338684839792222
539,Exp1,d11032021,pxiIK,rating,59.0,15.0,Clia1n.jpg,2.699,40.0,-0.23333053350806496,-0.934627946231634
540,Exp1,d11032021,UiTO9,rating,0.0,16.0,Lewa1n.jpg,10.031,68.0,1.4765864858939615,0.29451236707644884
541,Exp1,d11032021,UiTO9,rating,1.0,19.0,Macc1n.jpg,2.812,75.0,-0.4244023100283741,0.6116795316203167
542,Exp1,d11032021,UiTO9,rating,2.0,29.0,Clifb1.jpg,12.06,40.0,2.010885733286456,-0.974156291099023
543,Exp1,d11032021,UiTO9,rating,3.0,18.0,Krasb1.jpg,2.45,69.0,-0.5197282477100315,0.3398219620112871
544,Exp1,d11032021,UiTO9,rating,4.0,47.0,Kupkd1.jpg,6.52,65.0,0.5520302229097086,0.15858358227193398
545,Exp1,d11032021,UiTO9,rating,5.0,53.0,Gorka1.jpg,3.776,64.0,-0.17055091797003757,0.1132739873370957
546,Exp1,d11032021,UiTO9,rating,6.0,54.0,Kupka1.jpg,4.13,47.0,-0.07733163084488077,-0.6569891265551551
547,Exp1,d11032021,UiTO9,rating,7.0,45.0,Klia1n.jpg,2.243,62.0,-0.5742378308594877,0.02265479746741914
548,Exp1,d11032021,UiTO9,rating,8.0,31.0,Maca1n.jpg,4.543,71.0,0.03142420413446886,0.43044115188096366
549,Exp1,d11032021,UiTO9,rating,9.0,26.0,Clib1n.jpg,5.067,71.0,0.16940981558526588,0.43044115188096366
550,Exp1,d11032021,UiTO9,rating,10.0,49.0,Hinda1.jpg,4.963,63.0,0.14202335835075652,0.06796439240225742
551,Exp1,d11032021,UiTO9,rating,11.0,44.0,Lassf1.jpg,12.682,92.0,2.174677814054387,1.3819426455125676
552,Exp1,d11032021,UiTO9,rating,12.0,50.0,Gorke1.jpg,4.516,91.0,0.024314258506278896,1.3366330505777293
553,Exp1,d11032021,UiTO9,rating,13.0,5.0,Kupb1n.jpg,3.03,82.0,-0.3669960823637295,0.9288466961641848
554,Exp1,d11032021,UiTO9,rating,14.0,12.0,Kupkc1.jpg,4.121,61.0,-0.07970161272094393,-0.02265479746741914
555,Exp1,d11032021,UiTO9,rating,15.0,17.0,Picab1.jpg,2.497,64.0,-0.5073516756905898,0.1132739873370957
556,Exp1,d11032021,UiTO9,rating,16.0,9.0,Lassc1.jpg,3.345,57.0,-0.28404671670151366,-0.20389317720677227
557,Exp1,d11032021,UiTO9,rating,17.0,13.0,Picak1.jpg,2.825,62.0,-0.4209790028740603,0.02265479746741914
558,Exp1,d11032021,UiTO9,rating,18.0,11.0,Wdekb1.jpg,3.327,44.0,-0.2887866804536403,-0.7929179113596699
559,Exp1,d11032021,UiTO9,rating,19.0,23.0,Lewib1.jpg,7.98,95.0,0.9364939494710899,1.5178714303170824
560,Exp1,d11032021,UiTO9,rating,20.0,34.0,Monb1n.jpg,4.735,57.0,0.08198381749048612,-0.20389317720677227
561,Exp1,d11032021,UiTO9,rating,21.0,42.0,Picc1n.jpg,2.469,63.0,-0.5147249526383423,0.06796439240225742
562,Exp1,d11032021,UiTO9,rating,22.0,55.0,Lewic1.jpg,3.299,76.0,-0.29615995740139284,0.6569891265551551
563,Exp1,d11032021,UiTO9,rating,23.0,22.0,Macb1n.jpg,3.046,79.0,-0.36278278125072805,0.7929179113596699
564,Exp1,d11032021,UiTO9,rating,24.0,57.0,Lewc1n.jpg,4.426,71.0,0.0006144397456458581,0.43044115188096366
565,Exp1,d11032021,UiTO9,rating,25.0,10.0,Stera1.jpg,2.828,63.0,-0.42018900891537264,0.06796439240225742
566,Exp1,d11032021,UiTO9,rating,26.0,59.0,Kraa1n.jpg,2.707,68.0,-0.452052098582446,0.29451236707644884
567,Exp1,d11032021,UiTO9,rating,27.0,30.0,Lasse1.jpg,2.762,74.0,-0.4375688760065035,0.5663699366854785
568,Exp1,d11032021,UiTO9,rating,28.0,52.0,Picaa1.jpg,4.823,100.0,0.10515697361199405,1.7444194049912738
569,Exp1,d11032021,UiTO9,rating,29.0,33.0,Kupc1n.jpg,4.118,53.0,-0.08049160667963173,-0.3851315569461254
570,Exp1,d11032021,UiTO9,rating,30.0,58.0,Mackc1.jpg,5.368,60.0,0.24867254277360543,-0.06796439240225742
571,Exp1,d11032021,UiTO9,rating,31.0,46.0,Deka1n.jpg,3.032,54.0,-0.3664694197246043,-0.3398219620112871
572,Exp1,d11032021,UiTO9,rating,32.0,32.0,Macka1.jpg,3.422,99.0,-0.2637702050951942,1.6991098100564355
573,Exp1,d11032021,UiTO9,rating,33.0,1.0,Lewia1.jpg,16.646,9.0,3.2185231648004926,-2.3787537340790097
574,Exp1,d11032021,UiTO9,rating,34.0,36.0,Gorkf1.jpg,3.813,7.0,-0.16080765914622164,-2.4693729239486863
575,Exp1,d11032021,UiTO9,rating,35.0,21.0,Lewb1n.jpg,2.977,0.0,-0.38095264230054676,-2.786540088492554
576,Exp1,d11032021,UiTO9,rating,36.0,35.0,Wdeka1.jpg,2.078,0.0,-0.617687498587315,-2.786540088492554
577,Exp1,d11032021,UiTO9,rating,37.0,39.0,Dekb1n.jpg,2.752,0.0,-0.44020218920212945,-2.786540088492554
578,Exp1,d11032021,UiTO9,rating,38.0,25.0,Clifa1.jpg,2.098,55.0,-0.6124208721960631,-0.29451236707644884
579,Exp1,d11032021,UiTO9,rating,39.0,48.0,Picb1n.jpg,1.61,66.0,-0.7409265561426068,0.20389317720677227
580,Exp1,d11032021,UiTO9,rating,40.0,37.0,Mondb1.jpg,1.502,68.0,-0.7693663386553666,0.29451236707644884
581,Exp1,d11032021,UiTO9,rating,41.0,6.0,Wdekc1.jpg,1.455,71.0,-0.7817429106748083,0.43044115188096366
582,Exp1,d11032021,UiTO9,rating,42.0,20.0,Gorc1n.jpg,1.729,80.0,-0.7095901291146587,0.8382275062945082
583,Exp1,d11032021,UiTO9,rating,43.0,28.0,Krasa1.jpg,2.626,69.0,-0.47338193546701574,0.3398219620112871
584,Exp1,d11032021,UiTO9,rating,44.0,38.0,Lasc1n.jpg,1.312,59.0,-0.8193992893722586,-0.1132739873370957
585,Exp1,d11032021,UiTO9,rating,45.0,2.0,Dekob1.jpg,3.119,78.0,-0.3435595949226589,0.7476083164248316
586,Exp1,d11032021,UiTO9,rating,46.0,14.0,Kupkb1.jpg,12.251,63.0,2.0611820153229106,0.06796439240225742
587,Exp1,d11032021,UiTO9,rating,47.0,27.0,Vinb1n.jpg,1.794,76.0,-0.6924735933430903,0.6569891265551551
588,Exp1,d11032021,UiTO9,rating,48.0,56.0,Luisc1.jpg,1.761,80.0,-0.7011635268886558,0.8382275062945082
589,Exp1,d11032021,UiTO9,rating,49.0,24.0,Dekoa1.jpg,2.293,70.0,-0.5610712648813581,0.3851315569461254
590,Exp1,d11032021,UiTO9,rating,50.0,41.0,Vincb1.jpg,1.794,64.0,-0.6924735933430903,0.1132739873370957
591,Exp1,d11032021,UiTO9,rating,51.0,40.0,Krab1n.jpg,1.837,34.0,-0.6811503466018991,-1.2460138607080526
592,Exp1,d11032021,UiTO9,rating,52.0,4.0,Mackb1.jpg,17.344,60.0,3.4023284258551802,-0.06796439240225742
593,Exp1,d11032021,UiTO9,rating,53.0,15.0,Clia1n.jpg,11.48,60.0,1.858153567940154,-0.06796439240225742
594,Exp1,d11032021,UiTO9,rating,54.0,3.0,Fogeg1.jpg,1.826,76.0,-0.6840469911170874,0.6569891265551551
595,Exp1,d11032021,UiTO9,rating,55.0,51.0,Gora1n.jpg,1.622,50.0,-0.7377665803078558,-0.5210603417506402
596,Exp1,d11032021,UiTO9,rating,56.0,7.0,Pica1n.jpg,1.961,50.0,-0.6484972629761379,-0.5210603417506402
597,Exp1,d11032021,UiTO9,rating,57.0,0.0,Gorkc1.jpg,0.619,50.0,-1.0018878938291333,-0.5210603417506402
598,Exp1,d11032021,UiTO9,rating,58.0,8.0,Klina1.jpg,12.843,63.0,2.2170741565039638,0.06796439240225742
599,Exp1,d11032021,UiTO9,rating,59.0,43.0,Picac1.jpg,2.325,72.0,-0.5526446626553552,0.47575074681580193
600,Exp1,d11032021,MJ2Dl,rating,0.0,3.0,Fogeg1.jpg,6.577,67.0,0.05035239024636781,0.15496926087894444
601,Exp1,d11032021,MJ2Dl,rating,1.0,2.0,Dekob1.jpg,5.53,51.0,-0.2332353052240318,-0.39198107163497736
602,Exp1,d11032021,MJ2Dl,rating,2.0,15.0,Clia1n.jpg,6.773,33.0,0.10344044021026301,-1.0073001957131393
603,Exp1,d11032021,MJ2Dl,rating,3.0,6.0,Wdekc1.jpg,6.407,81.0,0.004306632624621942,0.633550801828626
604,Exp1,d11032021,MJ2Dl,rating,4.0,37.0,Mondb1.jpg,7.622,89.0,0.33339837092121755,0.9070259680855869
605,Exp1,d11032021,MJ2Dl,rating,5.0,45.0,Klia1n.jpg,4.982,65.0,-0.38166515920471855,0.08660046931470422
606,Exp1,d11032021,MJ2Dl,rating,6.0,33.0,Kupc1n.jpg,6.729,100.0,0.09152271470816417,1.283054321688908
607,Exp1,d11032021,MJ2Dl,rating,7.0,34.0,Monb1n.jpg,4.819,69.0,-0.4258149150420397,0.22333805244318466
608,Exp1,d11032021,MJ2Dl,rating,8.0,17.0,Picab1.jpg,5.034,40.0,-0.3675805745204199,-0.7680094252382986
609,Exp1,d11032021,MJ2Dl,rating,9.0,35.0,Wdeka1.jpg,7.816,95.0,0.38594470608956283,1.1121323427783076
610,Exp1,d11032021,MJ2Dl,rating,10.0,22.0,Macb1n.jpg,9.793,55.0,0.9214297814906899,-0.2552434885064969
611,Exp1,d11032021,MJ2Dl,rating,11.0,57.0,Lewc1n.jpg,5.064,100.0,-0.3594548525871706,1.283054321688908
612,Exp1,d11032021,MJ2Dl,rating,12.0,59.0,Kraa1n.jpg,6.128,0.0,-0.07126258135459629,-2.135385256523103
613,Exp1,d11032021,MJ2Dl,rating,13.0,47.0,Kupkd1.jpg,8.803,77.0,0.6532809576934643,0.49681321870014555
614,Exp1,d11032021,MJ2Dl,rating,14.0,53.0,Gorka1.jpg,4.827,34.0,-0.4236480558598399,-0.9731157999310193
615,Exp1,d11032021,MJ2Dl,rating,15.0,42.0,Picc1n.jpg,4.843,85.0,-0.4193143374954403,0.7702883849571065
616,Exp1,d11032021,MJ2Dl,rating,16.0,49.0,Hinda1.jpg,4.979,69.0,-0.38247773139804353,0.22333805244318466
617,Exp1,d11032021,MJ2Dl,rating,17.0,9.0,Lassc1.jpg,3.412,100.0,-0.8069112737114307,1.283054321688908
618,Exp1,d11032021,MJ2Dl,rating,18.0,39.0,Dekb1n.jpg,4.67,18.0,-0.4661726673105111,-1.5200661324449412
619,Exp1,d11032021,MJ2Dl,rating,19.0,12.0,Kupkc1.jpg,5.475,38.0,-0.24813246210165563,-0.8363782168025388
620,Exp1,d11032021,MJ2Dl,rating,20.0,8.0,Klina1.jpg,3.565,43.0,-0.7654700918518594,-0.6654562378919382
621,Exp1,d11032021,MJ2Dl,rating,21.0,4.0,Mackb1.jpg,3.452,75.0,-0.7960769778004316,0.42844442713590536
622,Exp1,d11032021,MJ2Dl,rating,22.0,56.0,Luisc1.jpg,3.265,100.0,-0.8467273111843521,1.283054321688908
623,Exp1,d11032021,MJ2Dl,rating,23.0,54.0,Kupka1.jpg,3.581,69.0,-0.7611363734874598,0.22333805244318466
624,Exp1,d11032021,MJ2Dl,rating,24.0,48.0,Picb1n.jpg,7.652,75.0,0.3415240928544669,0.42844442713590536
625,Exp1,d11032021,MJ2Dl,rating,25.0,50.0,Gorke1.jpg,7.975,99.0,0.42901103233578397,1.2488699259067881
626,Exp1,d11032021,MJ2Dl,rating,26.0,52.0,Picaa1.jpg,7.887,71.0,0.40517558133158604,0.2917068440074249
627,Exp1,d11032021,MJ2Dl,rating,27.0,16.0,Lewa1n.jpg,6.431,73.0,0.010807210171221368,0.3600756355716651
628,Exp1,d11032021,MJ2Dl,rating,28.0,11.0,Wdekb1.jpg,3.246,29.0,-0.8518736017420767,-1.1440377788416198
629,Exp1,d11032021,MJ2Dl,rating,29.0,58.0,Mackc1.jpg,5.694,93.0,-0.18881469198893586,1.0437635512140673
630,Exp1,d11032021,MJ2Dl,rating,30.0,7.0,Pica1n.jpg,3.633,66.0,-0.747051788803161,0.12078486509682433
631,Exp1,d11032021,MJ2Dl,rating,31.0,40.0,Krab1n.jpg,7.222,54.0,0.22505541181122735,-0.289427884288617
632,Exp1,d11032021,MJ2Dl,rating,32.0,51.0,Gora1n.jpg,3.336,27.0,-0.8274964359423289,-1.21240657040586
633,Exp1,d11032021,MJ2Dl,rating,33.0,13.0,Picak1.jpg,3.694,36.0,-0.7305294875388875,-0.904747008366779
634,Exp1,d11032021,MJ2Dl,rating,34.0,43.0,Picac1.jpg,5.801,100.0,-0.15983295042701337,1.283054321688908
635,Exp1,d11032021,MJ2Dl,rating,35.0,27.0,Vinb1n.jpg,6.545,0.0,0.04168495351756858,-2.135385256523103
636,Exp1,d11032021,MJ2Dl,rating,36.0,30.0,Lasse1.jpg,5.696,60.0,-0.18827297719338595,-0.08432150959589634
637,Exp1,d11032021,MJ2Dl,rating,37.0,10.0,Stera1.jpg,6.159,3.0,-0.06286600202357212,-2.0328320691767425
638,Exp1,d11032021,MJ2Dl,rating,38.0,46.0,Deka1n.jpg,5.127,1.0,-0.3423908365273472,-2.101200860740983
639,Exp1,d11032021,MJ2Dl,rating,39.0,31.0,Maca1n.jpg,4.919,36.0,-0.3987291752645422,-0.904747008366779
640,Exp1,d11032021,MJ2Dl,rating,40.0,28.0,Krasa1.jpg,8.83,100.0,0.6605941074333884,1.283054321688908
641,Exp1,d11032021,MJ2Dl,rating,41.0,36.0,Gorkf1.jpg,3.988,55.0,-0.6508974125930446,-0.2552434885064969
642,Exp1,d11032021,MJ2Dl,rating,42.0,21.0,Lewb1n.jpg,14.821,82.0,2.2833007775032685,0.6677351976107462
643,Exp1,d11032021,MJ2Dl,rating,43.0,0.0,Gorkc1.jpg,4.732,1.0,-0.44937950864846254,-2.101200860740983
644,Exp1,d11032021,MJ2Dl,rating,44.0,5.0,Kupb1n.jpg,5.264,100.0,-0.3052833730321754,1.283054321688908
645,Exp1,d11032021,MJ2Dl,rating,45.0,32.0,Macka1.jpg,3.261,63.0,-0.847810740775452,0.018231677750463995
646,Exp1,d11032021,MJ2Dl,rating,46.0,14.0,Kupkb1.jpg,5.358,56.0,-0.2798227776413278,-0.2210590927243768
647,Exp1,d11032021,MJ2Dl,rating,47.0,24.0,Dekoa1.jpg,6.283,80.0,-0.02927968469947497,0.5993664060465059
648,Exp1,d11032021,MJ2Dl,rating,48.0,19.0,Macc1n.jpg,28.078,78.0,5.874057299806123,0.5309976144822657
649,Exp1,d11032021,MJ2Dl,rating,49.0,18.0,Krasb1.jpg,4.532,56.0,-0.5035509882034578,-0.2210590927243768
650,Exp1,d11032021,MJ2Dl,rating,50.0,38.0,Lasc1n.jpg,12.403,76.0,1.6283675896833771,0.46262882291802543
651,Exp1,d11032021,MJ2Dl,rating,51.0,44.0,Lassf1.jpg,10.878,85.0,1.215310058076539,0.7702883849571065
652,Exp1,d11032021,MJ2Dl,rating,52.0,1.0,Lewia1.jpg,4.921,100.0,-0.39818746046899206,1.283054321688908
653,Exp1,d11032021,MJ2Dl,rating,53.0,20.0,Gorc1n.jpg,4.728,55.0,-0.45046293823956257,-0.2552434885064969
654,Exp1,d11032021,MJ2Dl,rating,54.0,29.0,Clifb1.jpg,4.574,100.0,-0.4921749774969088,1.283054321688908
655,Exp1,d11032021,MJ2Dl,rating,55.0,41.0,Vincb1.jpg,4.778,70.0,-0.4369200683508138,0.2575224482253048
656,Exp1,d11032021,MJ2Dl,rating,56.0,26.0,Clib1n.jpg,4.687,82.0,-0.46156809154833645,0.6677351976107462
657,Exp1,d11032021,MJ2Dl,rating,57.0,55.0,Lewic1.jpg,10.506,50.0,1.114551106104248,-0.4261654674170975
658,Exp1,d11032021,MJ2Dl,rating,58.0,23.0,Lewib1.jpg,10.228,23.0,1.0392527495228046,-1.3491441535343405
659,Exp1,d11032021,MJ2Dl,rating,59.0,25.0,Clifa1.jpg,5.453,60.0,-0.2540913248527049,-0.08432150959589634
660,Exp1,d11032021,52UGI,rating,0.0,50.0,Gorke1.jpg,3.44,42.0,2.553664284862027,-0.5143107668354088
661,Exp1,d11032021,52UGI,rating,1.0,49.0,Hinda1.jpg,2.518,54.0,0.2996401562190926,0.15896878247639923
662,Exp1,d11032021,52UGI,rating,2.0,59.0,Kraa1n.jpg,2.359,65.0,-0.0890689939481808,0.7761417026788898
663,Exp1,d11032021,52UGI,rating,3.0,46.0,Deka1n.jpg,2.798,76.0,0.9841594143752987,1.3933146228813804
664,Exp1,d11032021,52UGI,rating,4.0,1.0,Lewia1.jpg,3.027,36.0,1.5439983790816243,-0.8509505414913127
665,Exp1,d11032021,52UGI,rating,5.0,5.0,Kupb1n.jpg,4.015,61.0,3.95937347571852,0.5517151862416205
666,Exp1,d11032021,52UGI,rating,6.0,0.0,Gorkc1.jpg,2.685,72.0,0.7079069994765445,1.1688881064441112
667,Exp1,d11032021,52UGI,rating,7.0,2.0,Dekob1.jpg,2.388,74.0,-0.018172356496288285,1.2811013646627458
668,Exp1,d11032021,52UGI,rating,8.0,11.0,Wdekb1.jpg,1.954,29.0,-1.0791772066384067,-1.243696945256534
669,Exp1,d11032021,52UGI,rating,9.0,41.0,Vincb1.jpg,2.227,65.0,-0.41177092993610653,0.7761417026788898
670,Exp1,d11032021,52UGI,rating,10.0,12.0,Kupkc1.jpg,2.33,79.0,-0.1599656314000733,1.5616345102093325
671,Exp1,d11032021,52UGI,rating,11.0,53.0,Gorka1.jpg,2.798,59.0,0.9841594143752987,0.4395019280229859
672,Exp1,d11032021,52UGI,rating,12.0,39.0,Dekb1n.jpg,2.345,41.0,-0.12329495685599055,-0.5704173959447261
673,Exp1,d11032021,52UGI,rating,13.0,36.0,Gorkf1.jpg,2.01,41.0,-0.942273355007166,-0.5704173959447261
674,Exp1,d11032021,52UGI,rating,14.0,16.0,Lewa1n.jpg,2.618,20.0,0.5441113198463091,-1.74865660724039
675,Exp1,d11032021,52UGI,rating,15.0,10.0,Stera1.jpg,2.12,64.0,-0.6733550750172274,0.7200350735695725
676,Exp1,d11032021,52UGI,rating,16.0,18.0,Krasb1.jpg,2.806,67.0,1.003717107465476,0.8883549608975245
677,Exp1,d11032021,52UGI,rating,17.0,22.0,Macb1n.jpg,2.231,65.0,-0.4019920833910179,0.7761417026788898
678,Exp1,d11032021,52UGI,rating,18.0,33.0,Kupc1n.jpg,2.039,65.0,-0.8713767175552725,0.7761417026788898
679,Exp1,d11032021,52UGI,rating,19.0,9.0,Lassc1.jpg,2.026,34.0,-0.9031579688268114,-0.9631637997099474
680,Exp1,d11032021,52UGI,rating,20.0,37.0,Mondb1.jpg,2.621,77.0,0.5514454547551259,1.4494212519906977
681,Exp1,d11032021,52UGI,rating,21.0,20.0,Gorc1n.jpg,2.034,23.0,-0.8836002757366341,-1.580336719912438
682,Exp1,d11032021,52UGI,rating,22.0,34.0,Monb1n.jpg,2.094,33.0,-0.7369175775603042,-1.0192704288192647
683,Exp1,d11032021,52UGI,rating,23.0,15.0,Clia1n.jpg,2.333,31.0,-0.15263149649125654,-1.1314836870378993
684,Exp1,d11032021,52UGI,rating,24.0,52.0,Picaa1.jpg,2.313,52.0,-0.20152572921669984,0.04675552425776457
685,Exp1,d11032021,52UGI,rating,25.0,54.0,Kupka1.jpg,1.789,22.0,-1.4825546266233136,-1.6364433490217554
686,Exp1,d11032021,52UGI,rating,26.0,21.0,Lewb1n.jpg,2.704,61.0,0.7543565205657158,0.5517151862416205
687,Exp1,d11032021,52UGI,rating,27.0,58.0,Mackc1.jpg,2.264,71.0,-0.32131659939403673,1.112781477334794
688,Exp1,d11032021,52UGI,rating,28.0,47.0,Kupkd1.jpg,2.531,66.0,0.3314214074906316,0.8322483317882072
689,Exp1,d11032021,52UGI,rating,29.0,43.0,Picac1.jpg,2.231,74.0,-0.4019920833910179,1.2811013646627458
690,Exp1,d11032021,52UGI,rating,30.0,4.0,Mackb1.jpg,1.918,37.0,-1.1671868255442046,-0.7948439123819954
691,Exp1,d11032021,52UGI,rating,31.0,23.0,Lewib1.jpg,1.913,60.0,-1.1794103837255652,0.49560855713230323
692,Exp1,d11032021,52UGI,rating,32.0,45.0,Klia1n.jpg,2.191,32.0,-0.4997805488419045,-1.075377057928582
693,Exp1,d11032021,52UGI,rating,33.0,26.0,Clib1n.jpg,2.095,59.0,-0.7344728659240313,0.4395019280229859
694,Exp1,d11032021,52UGI,rating,34.0,38.0,Lasc1n.jpg,2.247,13.0,-0.36287669721066323,-2.1414030110056115
695,Exp1,d11032021,52UGI,rating,35.0,57.0,Lewc1n.jpg,2.062,35.0,-0.8151483499210135,-0.9070571706006301
696,Exp1,d11032021,52UGI,rating,36.0,8.0,Klina1.jpg,1.946,38.0,-1.0987348997285842,-0.7387372832726781
697,Exp1,d11032021,52UGI,rating,37.0,13.0,Picak1.jpg,2.131,33.0,-0.6464632470182344,-1.0192704288192647
698,Exp1,d11032021,52UGI,rating,38.0,3.0,Fogeg1.jpg,2.704,35.0,0.7543565205657158,-0.9070571706006301
699,Exp1,d11032021,52UGI,rating,39.0,51.0,Gora1n.jpg,2.848,37.0,1.1063949961889066,-0.7948439123819954
700,Exp1,d11032021,52UGI,rating,40.0,27.0,Vinb1n.jpg,2.444,58.0,0.11873149513495294,0.3833952989136685
701,Exp1,d11032021,52UGI,rating,41.0,44.0,Lassf1.jpg,2.36,62.0,-0.0866242823119089,0.6078218153509378
702,Exp1,d11032021,52UGI,rating,42.0,7.0,Pica1n.jpg,2.099,59.0,-0.7246940193789426,0.4395019280229859
703,Exp1,d11032021,52UGI,rating,43.0,6.0,Wdekc1.jpg,2.289,40.0,-0.2601988084872318,-0.6265240250540434
704,Exp1,d11032021,52UGI,rating,44.0,56.0,Luisc1.jpg,2.221,38.0,-0.426439199753739,-0.7387372832726781
705,Exp1,d11032021,52UGI,rating,45.0,40.0,Krab1n.jpg,1.997,62.0,-0.9740546062787034,0.6078218153509378
706,Exp1,d11032021,52UGI,rating,46.0,31.0,Maca1n.jpg,2.708,72.0,0.7641353671108044,1.1688881064441112
707,Exp1,d11032021,52UGI,rating,47.0,55.0,Lewic1.jpg,2.633,44.0,0.5807819943903918,-0.40209750861677407
708,Exp1,d11032021,52UGI,rating,48.0,32.0,Macka1.jpg,2.106,68.0,-0.7075810379250382,0.9444615900068418
709,Exp1,d11032021,52UGI,rating,49.0,35.0,Wdeka1.jpg,3.556,28.0,2.837250834669598,-1.2998035743658514
710,Exp1,d11032021,52UGI,rating,50.0,17.0,Picab1.jpg,2.304,59.0,-0.22352813394315013,0.4395019280229859
711,Exp1,d11032021,52UGI,rating,51.0,29.0,Clifb1.jpg,2.436,23.0,0.09917380204477563,-1.580336719912438
712,Exp1,d11032021,52UGI,rating,52.0,42.0,Picc1n.jpg,2.618,37.0,0.5441113198463091,-0.7948439123819954
713,Exp1,d11032021,52UGI,rating,53.0,24.0,Dekoa1.jpg,2.325,60.0,-0.17218918958143387,0.49560855713230323
714,Exp1,d11032021,52UGI,rating,54.0,30.0,Lasse1.jpg,2.651,66.0,0.6247868038432902,0.8322483317882072
715,Exp1,d11032021,52UGI,rating,55.0,19.0,Macc1n.jpg,2.019,69.0,-0.9202709502807158,1.0005682191161591
716,Exp1,d11032021,52UGI,rating,56.0,48.0,Picb1n.jpg,2.057,86.0,-0.827371908102374,1.9543809139745538
717,Exp1,d11032021,52UGI,rating,57.0,28.0,Krasa1.jpg,2.394,41.0,-0.003504086678654752,-0.5704173959447261
718,Exp1,d11032021,52UGI,rating,58.0,14.0,Kupkb1.jpg,2.374,59.0,-0.05239831940409805,0.4395019280229859
719,Exp1,d11032021,52UGI,rating,59.0,25.0,Clifa1.jpg,2.432,41.0,0.08939495549968697,-0.5704173959447261
720,Exp1,d11032021,gRBxs,rating,0.0,17.0,Picab1.jpg,9.993,41.0,0.24456905172002014,-0.02738686205383295
721,Exp1,d11032021,gRBxs,rating,1.0,34.0,Monb1n.jpg,9.969,55.0,0.24252933554510606,1.6158248611761374
722,Exp1,d11032021,gRBxs,rating,2.0,57.0,Lewc1n.jpg,5.886,32.0,-0.10447737871214113,-1.0837372555588138
723,Exp1,d11032021,gRBxs,rating,3.0,30.0,Lasse1.jpg,4.255,39.0,-0.2430930904323396,-0.2621313939438287
724,Exp1,d11032021,gRBxs,rating,4.0,29.0,Clifb1.jpg,5.842,37.0,-0.1082168583661502,-0.49687592583382445
725,Exp1,d11032021,gRBxs,rating,5.0,12.0,Kupkc1.jpg,5.673,49.0,-0.12257985976450306,0.9115912655061501
726,Exp1,d11032021,gRBxs,rating,6.0,45.0,Klia1n.jpg,4.602,47.0,-0.21360219407004105,0.6768467336161543
727,Exp1,d11032021,gRBxs,rating,7.0,49.0,Hinda1.jpg,7.099,55.0,-0.0013867237050284892,1.6158248611761374
728,Exp1,d11032021,gRBxs,rating,8.0,46.0,Deka1n.jpg,3.268,42.0,-0.32697641812567857,0.08998540389116493
729,Exp1,d11032021,gRBxs,rating,9.0,32.0,Macka1.jpg,6.581,41.0,-0.04541059781358935,-0.02738686205383295
730,Exp1,d11032021,gRBxs,rating,10.0,58.0,Mackc1.jpg,3.417,44.0,-0.31431318020642074,0.32472993578116066
731,Exp1,d11032021,gRBxs,rating,11.0,7.0,Pica1n.jpg,3.403,55.0,-0.3155030146417872,1.6158248611761374
732,Exp1,d11032021,gRBxs,rating,12.0,25.0,Clifa1.jpg,5.792,45.0,-0.11246626706388774,0.44210220172615855
733,Exp1,d11032021,gRBxs,rating,13.0,23.0,Lewib1.jpg,8.304,62.0,0.10102402591044615,2.4374307227911225
734,Exp1,d11032021,gRBxs,rating,14.0,31.0,Maca1n.jpg,5.379,41.0,-0.1475663829071998,-0.02738686205383295
735,Exp1,d11032021,gRBxs,rating,15.0,44.0,Lassf1.jpg,4.924,43.0,-0.1862360020566113,0.2073576698361628
736,Exp1,d11032021,gRBxs,rating,16.0,20.0,Gorc1n.jpg,3.744,30.0,-0.2865220473232172,-1.3184817874488095
737,Exp1,d11032021,gRBxs,rating,17.0,59.0,Kraa1n.jpg,3.715,40.0,-0.288986704367905,-0.14475912799883084
738,Exp1,d11032021,gRBxs,rating,18.0,40.0,Krab1n.jpg,2.554,40.0,-0.38765797432937055,-0.14475912799883084
739,Exp1,d11032021,gRBxs,rating,19.0,24.0,Dekoa1.jpg,4.618,38.0,-0.21224238328676506,-0.37950365988882656
740,Exp1,d11032021,gRBxs,rating,20.0,15.0,Clia1n.jpg,5.791,44.0,-0.11255125523784244,0.32472993578116066
741,Exp1,d11032021,gRBxs,rating,21.0,52.0,Picaa1.jpg,91.459,39.0,7.168215631117744,-0.2621313939438287
742,Exp1,d11032021,gRBxs,rating,22.0,8.0,Klina1.jpg,10.683,44.0,0.3032108917487981,0.32472993578116066
743,Exp1,d11032021,gRBxs,rating,23.0,2.0,Dekob1.jpg,4.936,40.0,-0.18521614396915434,-0.14475912799883084
744,Exp1,d11032021,gRBxs,rating,24.0,28.0,Krasa1.jpg,3.444,40.0,-0.31201849950964244,-0.14475912799883084
745,Exp1,d11032021,gRBxs,rating,25.0,11.0,Wdekb1.jpg,3.938,35.0,-0.27003434157599554,-0.7316204577238202
746,Exp1,d11032021,gRBxs,rating,26.0,56.0,Luisc1.jpg,7.926,36.0,0.06889849615555037,-0.6142481917788223
747,Exp1,d11032021,gRBxs,rating,27.0,53.0,Gorka1.jpg,4.663,42.0,-0.20841791545880128,0.08998540389116493
748,Exp1,d11032021,gRBxs,rating,28.0,13.0,Picak1.jpg,8.048,39.0,0.07926705337802994,-0.2621313939438287
749,Exp1,d11032021,gRBxs,rating,29.0,54.0,Kupka1.jpg,4.774,25.0,-0.19898422814982397,-1.905343117173799
750,Exp1,d11032021,gRBxs,rating,30.0,55.0,Lewic1.jpg,6.398,55.0,-0.0609634336473088,1.6158248611761374
751,Exp1,d11032021,gRBxs,rating,31.0,39.0,Dekb1n.jpg,2.975,38.0,-0.35187795309442055,-0.37950365988882656
752,Exp1,d11032021,gRBxs,rating,32.0,1.0,Lewia1.jpg,4.193,39.0,-0.24836235721753416,-0.2621313939438287
753,Exp1,d11032021,gRBxs,rating,33.0,4.0,Mackb1.jpg,5.368,47.0,-0.148501252820702,0.6768467336161543
754,Exp1,d11032021,gRBxs,rating,34.0,10.0,Stera1.jpg,3.405,45.0,-0.31533303829387777,0.44210220172615855
755,Exp1,d11032021,gRBxs,rating,35.0,22.0,Macb1n.jpg,8.717,41.0,0.13612414175375823,-0.02738686205383295
756,Exp1,d11032021,gRBxs,rating,36.0,36.0,Gorkf1.jpg,5.317,37.0,-0.1528356496923943,-0.49687592583382445
757,Exp1,d11032021,gRBxs,rating,37.0,50.0,Gorke1.jpg,4.098,64.0,-0.2564362337432355,2.672175254681118
758,Exp1,d11032021,gRBxs,rating,38.0,35.0,Wdeka1.jpg,5.65,38.0,-0.12453458776546229,-0.37950365988882656
759,Exp1,d11032021,gRBxs,rating,39.0,27.0,Vinb1n.jpg,2.365,38.0,-0.40372073920681845,-0.37950365988882656
760,Exp1,d11032021,gRBxs,rating,40.0,14.0,Kupkb1.jpg,4.754,43.0,-0.200683991628919,0.2073576698361628
761,Exp1,d11032021,gRBxs,rating,41.0,38.0,Lasc1n.jpg,7.658,73.0,0.04612166553567718,3.7285256481860993
762,Exp1,d11032021,gRBxs,rating,42.0,19.0,Macc1n.jpg,3.045,32.0,-0.345928780917588,-1.0837372555588138
763,Exp1,d11032021,gRBxs,rating,43.0,42.0,Picc1n.jpg,2.333,34.0,-0.4064403607733705,-0.8489927236688181
764,Exp1,d11032021,gRBxs,rating,44.0,0.0,Gorkc1.jpg,3.114,35.0,-0.3400645969147102,-0.7316204577238202
765,Exp1,d11032021,gRBxs,rating,45.0,26.0,Clib1n.jpg,2.995,44.0,-0.35017818961532554,0.32472993578116066
766,Exp1,d11032021,gRBxs,rating,46.0,41.0,Vincb1.jpg,4.07,39.0,-0.2588159026139685,-0.2621313939438287
767,Exp1,d11032021,gRBxs,rating,47.0,21.0,Lewb1n.jpg,4.47,43.0,-0.2248206330320682,0.2073576698361628
768,Exp1,d11032021,gRBxs,rating,48.0,37.0,Mondb1.jpg,2.556,38.0,-0.3874879979814611,-0.37950365988882656
769,Exp1,d11032021,gRBxs,rating,49.0,3.0,Fogeg1.jpg,2.67,32.0,-0.3777993461506195,-1.0837372555588138
770,Exp1,d11032021,gRBxs,rating,50.0,48.0,Picb1n.jpg,4.017,34.0,-0.26332027583357026,-0.8489927236688181
771,Exp1,d11032021,gRBxs,rating,51.0,43.0,Picac1.jpg,27.496,40.0,1.7321170604500222,-0.14475912799883084
772,Exp1,d11032021,gRBxs,rating,52.0,33.0,Kupc1n.jpg,4.814,35.0,-0.19558470119163393,-0.7316204577238202
773,Exp1,d11032021,gRBxs,rating,53.0,9.0,Lassc1.jpg,20.308,36.0,1.121222066063274,-0.6142481917788223
774,Exp1,d11032021,gRBxs,rating,54.0,51.0,Gora1n.jpg,4.226,41.0,-0.24555774747702738,-0.02738686205383295
775,Exp1,d11032021,gRBxs,rating,55.0,16.0,Lewa1n.jpg,5.698,40.0,-0.12045515541563426,-0.14475912799883084
776,Exp1,d11032021,gRBxs,rating,56.0,47.0,Kupkd1.jpg,6.06,32.0,-0.08968943644401456,-1.0837372555588138
777,Exp1,d11032021,gRBxs,rating,57.0,18.0,Krasb1.jpg,6.273,38.0,-0.07158695539165263,-0.37950365988882656
778,Exp1,d11032021,gRBxs,rating,58.0,6.0,Wdekc1.jpg,3.427,27.0,-0.3134632984668732,-1.6705985852838032
779,Exp1,d11032021,gRBxs,rating,59.0,5.0,Kupb1n.jpg,3.769,36.0,-0.28439734297434843,-0.6142481917788223
780,Exp1,d11032021,LBPHd,rating,0.0,9.0,Lassc1.jpg,4.781,26.0,2.6689675663119643,-2.451610846279498
781,Exp1,d11032021,LBPHd,rating,1.0,31.0,Maca1n.jpg,3.885,69.0,1.1472076778327185,0.6459190182656074
782,Exp1,d11032021,LBPHd,rating,2.0,48.0,Picb1n.jpg,3.355,60.0,0.2470595295135219,-0.0024011859415076975
783,Exp1,d11032021,LBPHd,rating,3.0,8.0,Klina1.jpg,3.118,63.0,-0.15545954813110024,0.21370554879419734
784,Exp1,d11032021,LBPHd,rating,4.0,53.0,Gorka1.jpg,3.516,59.0,0.5205007594746365,-0.07443676418674271
785,Exp1,d11032021,LBPHd,rating,5.0,35.0,Wdeka1.jpg,3.181,65.0,-0.048460805972402994,0.3577767052846674
786,Exp1,d11032021,LBPHd,rating,6.0,17.0,Picab1.jpg,3.287,60.0,0.13156882369143616,-0.0024011859415076975
787,Exp1,d11032021,LBPHd,rating,7.0,1.0,Lewia1.jpg,3.165,62.0,-0.0756350896952467,0.14166997054896233
788,Exp1,d11032021,LBPHd,rating,8.0,30.0,Lasse1.jpg,2.709,60.0,-0.8501021757962914,-0.0024011859415076975
789,Exp1,d11032021,LBPHd,rating,9.0,16.0,Lewa1n.jpg,3.654,34.0,0.754878956584163,-1.875326220317618
790,Exp1,d11032021,LBPHd,rating,10.0,34.0,Monb1n.jpg,3.813,57.0,1.0249234010799224,-0.21850792067721272
791,Exp1,d11032021,LBPHd,rating,11.0,29.0,Clifb1.jpg,3.213,55.0,0.005887761473284411,-0.3625790771676828
792,Exp1,d11032021,LBPHd,rating,12.0,10.0,Stera1.jpg,2.957,72.0,-0.42890077809221483,0.8620257530013125
793,Exp1,d11032021,LBPHd,rating,13.0,32.0,Macka1.jpg,2.878,78.0,-0.5630738039737551,1.2942392224727226
794,Exp1,d11032021,LBPHd,rating,14.0,3.0,Fogeg1.jpg,3.781,91.0,0.970574833634235,2.230701739660778
795,Exp1,d11032021,LBPHd,rating,15.0,20.0,Gorc1n.jpg,2.933,32.0,-0.46966220367648037,-2.019397376808088
796,Exp1,d11032021,LBPHd,rating,16.0,47.0,Kupkd1.jpg,4.037,65.0,1.4053633731997335,0.3577767052846674
797,Exp1,d11032021,LBPHd,rating,17.0,11.0,Wdekb1.jpg,3.789,56.0,0.9841619754956569,-0.29054349892244774
798,Exp1,d11032021,LBPHd,rating,18.0,40.0,Krab1n.jpg,2.573,60.0,-1.081083587440463,-0.0024011859415076975
799,Exp1,d11032021,LBPHd,rating,19.0,6.0,Wdekc1.jpg,3.453,56.0,0.41350201731593916,-0.29054349892244774
800,Exp1,d11032021,LBPHd,rating,20.0,56.0,Luisc1.jpg,3.134,82.0,-0.12828526440825655,1.5823815354536626
801,Exp1,d11032021,LBPHd,rating,21.0,28.0,Krasa1.jpg,2.854,74.0,-0.6038352295580206,1.0060969094917824
802,Exp1,d11032021,LBPHd,rating,22.0,15.0,Clia1n.jpg,5.358,64.0,3.648940173067014,0.28574112703943233
803,Exp1,d11032021,LBPHd,rating,23.0,21.0,Lewb1n.jpg,3.102,72.0,-0.18263383185394397,0.8620257530013125
804,Exp1,d11032021,LBPHd,rating,24.0,18.0,Krasb1.jpg,3.542,60.0,0.5646589705242571,-0.0024011859415076975
805,Exp1,d11032021,LBPHd,rating,25.0,59.0,Kraa1n.jpg,3.862,45.0,1.1081446449811312,-1.082934859620033
806,Exp1,d11032021,LBPHd,rating,26.0,33.0,Kupc1n.jpg,2.91,54.0,-0.5087252365280677,-0.43461465541291777
807,Exp1,d11032021,LBPHd,rating,27.0,22.0,Macb1n.jpg,2.702,66.0,-0.8619909249250357,0.42981228352990236
808,Exp1,d11032021,LBPHd,rating,28.0,44.0,Lassf1.jpg,2.71,60.0,-0.8484037830636139,-0.0024011859415076975
809,Exp1,d11032021,LBPHd,rating,29.0,27.0,Vinb1n.jpg,2.782,46.0,-0.7261195063108172,-1.010899281374798
810,Exp1,d11032021,LBPHd,rating,30.0,23.0,Lewib1.jpg,2.966,77.0,-0.4136152434981147,1.2222036442274875
811,Exp1,d11032021,LBPHd,rating,31.0,5.0,Kupb1n.jpg,3.132,67.0,-0.13168204987361165,0.5018478617751374
812,Exp1,d11032021,LBPHd,rating,32.0,4.0,Mackb1.jpg,2.958,66.0,-0.42720238535953653,0.42981228352990236
813,Exp1,d11032021,LBPHd,rating,33.0,19.0,Macc1n.jpg,3.293,74.0,0.14175918008750293,1.0060969094917824
814,Exp1,d11032021,LBPHd,rating,34.0,7.0,Pica1n.jpg,2.966,79.0,-0.4136152434981147,1.3662748007179575
815,Exp1,d11032021,LBPHd,rating,35.0,51.0,Gora1n.jpg,3.094,63.0,-0.19622097371536582,0.21370554879419734
816,Exp1,d11032021,LBPHd,rating,36.0,0.0,Gorkc1.jpg,4.086,65.0,1.488584617100943,0.3577767052846674
817,Exp1,d11032021,LBPHd,rating,37.0,49.0,Hinda1.jpg,2.469,89.0,-1.2577164316389469,2.0866305831703076
818,Exp1,d11032021,LBPHd,rating,38.0,46.0,Deka1n.jpg,2.598,68.0,-1.0386237691235198,0.5738834400203724
819,Exp1,d11032021,LBPHd,rating,39.0,41.0,Vincb1.jpg,3.374,57.0,0.279328991434399,-0.21850792067721272
820,Exp1,d11032021,LBPHd,rating,40.0,14.0,Kupkb1.jpg,2.422,64.0,-1.3375408900747998,0.28574112703943233
821,Exp1,d11032021,LBPHd,rating,41.0,13.0,Picak1.jpg,2.782,47.0,-0.7261195063108172,-0.9388637031295629
822,Exp1,d11032021,LBPHd,rating,42.0,43.0,Picac1.jpg,2.91,35.0,-0.5087252365280677,-1.803290642072383
823,Exp1,d11032021,LBPHd,rating,43.0,38.0,Lasc1n.jpg,2.446,35.0,-1.2967794644905342,-1.803290642072383
824,Exp1,d11032021,LBPHd,rating,44.0,58.0,Mackc1.jpg,3.398,57.0,0.32009041701866453,-0.21850792067721272
825,Exp1,d11032021,LBPHd,rating,45.0,2.0,Dekob1.jpg,2.862,72.0,-0.5902480876965988,0.8620257530013125
826,Exp1,d11032021,LBPHd,rating,46.0,52.0,Picaa1.jpg,3.646,62.0,0.7412918147227412,0.14166997054896233
827,Exp1,d11032021,LBPHd,rating,47.0,39.0,Dekb1n.jpg,2.678,69.0,-0.9027523505093012,0.6459190182656074
828,Exp1,d11032021,LBPHd,rating,48.0,54.0,Kupka1.jpg,2.67,82.0,-0.9163394923707232,1.5823815354536626
829,Exp1,d11032021,LBPHd,rating,49.0,45.0,Klia1n.jpg,2.43,64.0,-1.3239537482133779,0.28574112703943233
830,Exp1,d11032021,LBPHd,rating,50.0,36.0,Gorkf1.jpg,2.741,60.0,-0.795753608350604,-0.0024011859415076975
831,Exp1,d11032021,LBPHd,rating,51.0,50.0,Gorke1.jpg,2.926,44.0,-0.4815509528052239,-1.1549704378652679
832,Exp1,d11032021,LBPHd,rating,52.0,12.0,Kupkc1.jpg,2.573,46.0,-1.081083587440463,-1.010899281374798
833,Exp1,d11032021,LBPHd,rating,53.0,57.0,Lewc1n.jpg,4.326,41.0,1.896198872943597,-1.371077172600973
834,Exp1,d11032021,LBPHd,rating,54.0,24.0,Dekoa1.jpg,3.365,45.0,0.26404345684029956,-1.082934859620033
835,Exp1,d11032021,LBPHd,rating,55.0,42.0,Picc1n.jpg,3.061,43.0,-0.25226793389373076,-1.227006016110503
836,Exp1,d11032021,LBPHd,rating,56.0,25.0,Clifa1.jpg,3.845,56.0,1.0792719685256098,-0.29054349892244774
837,Exp1,d11032021,LBPHd,rating,57.0,26.0,Clib1n.jpg,2.821,44.0,-0.6598821897363856,-1.1549704378652679
838,Exp1,d11032021,LBPHd,rating,58.0,37.0,Mondb1.jpg,2.67,57.0,-0.9163394923707232,-0.21850792067721272
839,Exp1,d11032021,LBPHd,rating,59.0,55.0,Lewic1.jpg,4.03,71.0,1.39347462407099,0.7899901747560775
840,Exp1,d11032021,mRarI,rating,0.0,42.0,Picc1n.jpg,3.294,4.0,0.6025486400789049,-0.7455990228221685
841,Exp1,d11032021,mRarI,rating,1.0,29.0,Clifb1.jpg,2.398,2.0,0.041076452974023674,-0.9281947018806587
842,Exp1,d11032021,mRarI,rating,2.0,12.0,Kupkc1.jpg,1.606,7.0,-0.4552248552704696,-0.4717055042344331
843,Exp1,d11032021,mRarI,rating,3.0,51.0,Gora1n.jpg,2.406,5.0,0.046089597501745835,-0.6543011832929233
844,Exp1,d11032021,mRarI,rating,4.0,18.0,Krasb1.jpg,1.757,12.0,-0.3606017523097141,-0.015216306588207466
845,Exp1,d11032021,mRarI,rating,5.0,8.0,Klina1.jpg,2.717,5.0,0.24097559101694455,-0.6543011832929233
846,Exp1,d11032021,mRarI,rating,6.0,45.0,Klia1n.jpg,3.366,5.0,0.6476669408284043,-0.6543011832929233
847,Exp1,d11032021,mRarI,rating,7.0,30.0,Lasse1.jpg,13.934,9.0,7.270030861949369,-0.28910982517594286
848,Exp1,d11032021,mRarI,rating,8.0,39.0,Dekb1n.jpg,1.878,6.0,-0.2847779413279165,-0.5630033437636782
849,Exp1,d11032021,mRarI,rating,9.0,31.0,Maca1n.jpg,2.742,11.0,0.2566416676660762,-0.1065141461174526
850,Exp1,d11032021,mRarI,rating,10.0,3.0,Fogeg1.jpg,2.742,7.0,0.2566416676660762,-0.4717055042344331
851,Exp1,d11032021,mRarI,rating,11.0,4.0,Mackb1.jpg,1.934,8.0,-0.24968592963386138,-0.38040766470518794
852,Exp1,d11032021,mRarI,rating,12.0,11.0,Wdekb1.jpg,1.639,7.0,-0.43454563409361574,-0.4717055042344331
853,Exp1,d11032021,mRarI,rating,13.0,7.0,Pica1n.jpg,1.541,10.0,-0.4959566545582122,-0.19781198564669772
854,Exp1,d11032021,mRarI,rating,14.0,1.0,Lewia1.jpg,2.253,35.0,-0.04978679159094038,2.0846340025844308
855,Exp1,d11032021,mRarI,rating,15.0,10.0,Stera1.jpg,1.943,7.0,-0.24404614204017389,-0.4717055042344331
856,Exp1,d11032021,mRarI,rating,16.0,46.0,Deka1n.jpg,1.853,7.0,-0.3004440179770482,-0.4717055042344331
857,Exp1,d11032021,mRarI,rating,17.0,52.0,Picaa1.jpg,1.99,11.0,-0.21459391793980626,-0.1065141461174526
858,Exp1,d11032021,mRarI,rating,18.0,33.0,Kupc1n.jpg,1.878,7.0,-0.2847779413279165,-0.4717055042344331
859,Exp1,d11032021,mRarI,rating,19.0,2.0,Dekob1.jpg,1.533,9.0,-0.5009697990859343,-0.28910982517594286
860,Exp1,d11032021,mRarI,rating,20.0,5.0,Kupb1n.jpg,1.99,6.0,-0.21459391793980626,-0.5630033437636782
861,Exp1,d11032021,mRarI,rating,21.0,21.0,Lewb1n.jpg,1.486,9.0,-0.5304220231863019,-0.28910982517594286
862,Exp1,d11032021,mRarI,rating,22.0,19.0,Macc1n.jpg,1.35,11.0,-0.6156454801575785,-0.1065141461174526
863,Exp1,d11032021,mRarI,rating,23.0,6.0,Wdekc1.jpg,1.943,10.0,-0.24404614204017389,-0.19781198564669772
864,Exp1,d11032021,mRarI,rating,24.0,32.0,Macka1.jpg,1.949,8.0,-0.24028628364438226,-0.38040766470518794
865,Exp1,d11032021,mRarI,rating,25.0,36.0,Gorkf1.jpg,2.106,25.0,-0.14190332228783512,1.1716556072919793
866,Exp1,d11032021,mRarI,rating,26.0,16.0,Lewa1n.jpg,2.107,16.0,-0.14127667922186962,0.349975051528773
867,Exp1,d11032021,mRarI,rating,27.0,54.0,Kupka1.jpg,1.782,16.0,-0.34493567566058225,0.349975051528773
868,Exp1,d11032021,mRarI,rating,28.0,59.0,Kraa1n.jpg,1.894,13.0,-0.27475165227247217,0.07608153294103766
869,Exp1,d11032021,mRarI,rating,29.0,15.0,Clia1n.jpg,1.814,12.0,-0.32488309754969363,-0.015216306588207466
870,Exp1,d11032021,mRarI,rating,30.0,56.0,Luisc1.jpg,2.479,13.0,0.09183454131721046,0.07608153294103766
871,Exp1,d11032021,mRarI,rating,31.0,43.0,Picac1.jpg,1.966,14.0,-0.22963335152297273,0.16737937247028278
872,Exp1,d11032021,mRarI,rating,32.0,35.0,Wdeka1.jpg,2.398,3.0,0.041076452974023674,-0.8368968623514136
873,Exp1,d11032021,mRarI,rating,33.0,57.0,Lewc1n.jpg,2.629,65.0,0.1858310012120008,4.823569188461784
874,Exp1,d11032021,mRarI,rating,34.0,50.0,Gorke1.jpg,2.31,9.0,-0.014068136830920067,-0.28910982517594286
875,Exp1,d11032021,mRarI,rating,35.0,44.0,Lassf1.jpg,1.773,11.0,-0.35057546325426975,-0.1065141461174526
876,Exp1,d11032021,mRarI,rating,36.0,13.0,Picak1.jpg,1.933,9.0,-0.2503125726998266,-0.28910982517594286
877,Exp1,d11032021,mRarI,rating,37.0,20.0,Gorc1n.jpg,2.181,11.0,-0.0949050923404398,-0.1065141461174526
878,Exp1,d11032021,mRarI,rating,38.0,40.0,Krab1n.jpg,1.591,9.0,-0.4646245012599487,-0.28910982517594286
879,Exp1,d11032021,mRarI,rating,39.0,41.0,Vincb1.jpg,2.773,7.0,0.2760676027109996,-0.4717055042344331
880,Exp1,d11032021,mRarI,rating,40.0,47.0,Kupkd1.jpg,1.933,11.0,-0.2503125726998266,-0.1065141461174526
881,Exp1,d11032021,mRarI,rating,41.0,25.0,Clifa1.jpg,2.175,7.0,-0.09866495073623156,-0.4717055042344331
882,Exp1,d11032021,mRarI,rating,42.0,34.0,Monb1n.jpg,1.965,12.0,-0.23025999458893795,-0.015216306588207466
883,Exp1,d11032021,mRarI,rating,43.0,37.0,Mondb1.jpg,2.063,8.0,-0.1688489741243415,-0.38040766470518794
884,Exp1,d11032021,mRarI,rating,44.0,22.0,Macb1n.jpg,2.478,8.0,0.09120789825124526,-0.38040766470518794
885,Exp1,d11032021,mRarI,rating,45.0,38.0,Lasc1n.jpg,3.19,12.0,0.5373777612185168,-0.015216306588207466
886,Exp1,d11032021,mRarI,rating,46.0,9.0,Lassc1.jpg,2.102,14.0,-0.14440989455169617,0.16737937247028278
887,Exp1,d11032021,mRarI,rating,47.0,0.0,Gorkc1.jpg,2.19,11.0,-0.08926530474675244,-0.1065141461174526
888,Exp1,d11032021,mRarI,rating,48.0,23.0,Lewib1.jpg,1.822,15.0,-0.31986995302197146,0.2586772119995279
889,Exp1,d11032021,mRarI,rating,49.0,49.0,Hinda1.jpg,1.814,11.0,-0.32488309754969363,-0.1065141461174526
890,Exp1,d11032021,mRarI,rating,50.0,58.0,Mackc1.jpg,2.605,14.0,0.17079156762883432,0.16737937247028278
891,Exp1,d11032021,mRarI,rating,51.0,27.0,Vinb1n.jpg,3.456,12.0,0.7040648167652784,-0.015216306588207466
892,Exp1,d11032021,mRarI,rating,52.0,55.0,Lewic1.jpg,2.414,11.0,0.05110274202946799,-0.1065141461174526
893,Exp1,d11032021,mRarI,rating,53.0,17.0,Picab1.jpg,1.862,14.0,-0.2948042303833607,0.16737937247028278
894,Exp1,d11032021,mRarI,rating,54.0,28.0,Krasa1.jpg,1.83,9.0,-0.3148568084942493,-0.28910982517594286
895,Exp1,d11032021,mRarI,rating,55.0,53.0,Gorka1.jpg,1.774,11.0,-0.3499488201883044,-0.1065141461174526
896,Exp1,d11032021,mRarI,rating,56.0,14.0,Kupkb1.jpg,2.782,64.0,0.281707390304687,4.73227134893254
897,Exp1,d11032021,mRarI,rating,57.0,48.0,Picb1n.jpg,1.774,11.0,-0.3499488201883044,-0.1065141461174526
898,Exp1,d11032021,mRarI,rating,58.0,26.0,Clib1n.jpg,1.533,12.0,-0.5009697990859343,-0.015216306588207466
899,Exp1,d11032021,mRarI,rating,59.0,24.0,Dekoa1.jpg,2.327,12.0,-0.00341520470951055,-0.015216306588207466
900,Exp1,d11032021,zwAoN,rating,0.0,7.0,Pica1n.jpg,4.862,50.0,-0.34817047234087695,-0.22997187119137055
901,Exp1,d11032021,zwAoN,rating,1.0,27.0,Vinb1n.jpg,3.769,71.0,-0.48153312391563724,1.2116428437396083
902,Exp1,d11032021,zwAoN,rating,2.0,40.0,Krab1n.jpg,4.288,56.0,-0.41820721708370623,0.18191804736033773
903,Exp1,d11032021,zwAoN,rating,3.0,43.0,Picac1.jpg,16.571,56.0,1.0805059112719948,0.18191804736033773
904,Exp1,d11032021,zwAoN,rating,4.0,0.0,Gorkc1.jpg,0.132,50.0,-0.9253025326781289,-0.22997187119137055
905,Exp1,d11032021,zwAoN,rating,5.0,51.0,Gora1n.jpg,0.213,50.0,-0.9154192986638968,-0.22997187119137055
906,Exp1,d11032021,zwAoN,rating,6.0,44.0,Lassf1.jpg,12.765,34.0,0.6161159278378338,-1.3283449873292592
907,Exp1,d11032021,zwAoN,rating,7.0,55.0,Lewic1.jpg,10.303,59.0,0.3157144198990782,0.38786300663619183
908,Exp1,d11032021,zwAoN,rating,8.0,47.0,Kupkd1.jpg,3.658,55.0,-0.49507681497217737,0.11326972760171967
909,Exp1,d11032021,zwAoN,rating,9.0,11.0,Wdekb1.jpg,4.922,25.0,-0.3408495582562607,-1.9461798651568216
910,Exp1,d11032021,zwAoN,rating,10.0,48.0,Picb1n.jpg,6.252,62.0,-0.17856929604726596,0.593807965912046
911,Exp1,d11032021,zwAoN,rating,11.0,28.0,Krasa1.jpg,6.888,58.0,-0.10096760675033314,0.3192146868775738
912,Exp1,d11032021,zwAoN,rating,12.0,58.0,Mackc1.jpg,7.338,36.0,-0.04606075111571085,-1.1910483478120233
913,Exp1,d11032021,zwAoN,rating,13.0,32.0,Macka1.jpg,3.952,38.0,-0.45920433595755755,-1.0537517082947871
914,Exp1,d11032021,zwAoN,rating,14.0,33.0,Kupc1n.jpg,4.283,61.0,-0.41881729325742423,0.5251596461534279
915,Exp1,d11032021,zwAoN,rating,15.0,2.0,Dekob1.jpg,3.719,39.0,-0.4876338856528175,-0.9851033885361691
916,Exp1,d11032021,zwAoN,rating,16.0,35.0,Wdeka1.jpg,4.54,59.0,-0.38745937792831775,0.38786300663619183
917,Exp1,d11032021,zwAoN,rating,17.0,10.0,Stera1.jpg,4.808,39.0,-0.35475929501703163,-0.9851033885361691
918,Exp1,d11032021,zwAoN,rating,18.0,31.0,Maca1n.jpg,5.271,60.0,-0.2982662413307425,0.4565113263948099
919,Exp1,d11032021,zwAoN,rating,19.0,49.0,Hinda1.jpg,5.231,64.0,-0.3031468507204867,0.7311046054292821
920,Exp1,d11032021,zwAoN,rating,20.0,45.0,Klia1n.jpg,4.309,65.0,-0.41564489715409053,0.7997529251879001
921,Exp1,d11032021,zwAoN,rating,21.0,5.0,Kupb1n.jpg,6.221,55.0,-0.18235176832431768,0.11326972760171967
922,Exp1,d11032021,zwAoN,rating,22.0,52.0,Picaa1.jpg,7.468,34.0,-0.0301987705990422,-1.3283449873292592
923,Exp1,d11032021,zwAoN,rating,23.0,19.0,Macc1n.jpg,4.001,42.0,-0.45322558945512087,-0.7791584292603149
924,Exp1,d11032021,zwAoN,rating,24.0,1.0,Lewia1.jpg,7.128,66.0,-0.0716839504118679,0.8684012449465182
925,Exp1,d11032021,zwAoN,rating,25.0,15.0,Clia1n.jpg,8.041,58.0,0.03971595890904354,0.3192146868775738
926,Exp1,d11032021,zwAoN,rating,26.0,29.0,Clifb1.jpg,24.694,50.0,2.0716356630942983,-0.22997187119137055
927,Exp1,d11032021,zwAoN,rating,27.0,9.0,Lassc1.jpg,2.778,57.0,-0.6024502215465499,0.25056636711895575
928,Exp1,d11032021,zwAoN,rating,28.0,12.0,Kupkc1.jpg,4.445,64.0,-0.39905082522896024,0.7311046054292821
929,Exp1,d11032021,zwAoN,rating,29.0,14.0,Kupkb1.jpg,1.288,50.0,-0.7842529213145214,-0.22997187119137055
930,Exp1,d11032021,zwAoN,rating,30.0,13.0,Picak1.jpg,5.509,61.0,-0.26922661546176446,0.5251596461534279
931,Exp1,d11032021,zwAoN,rating,31.0,39.0,Dekb1n.jpg,8.214,36.0,0.06082459451968722,-1.1910483478120233
932,Exp1,d11032021,zwAoN,rating,32.0,20.0,Gorc1n.jpg,9.694,50.0,0.24140714194022275,-0.22997187119137055
933,Exp1,d11032021,zwAoN,rating,33.0,42.0,Picc1n.jpg,5.137,64.0,-0.3146162827863856,0.7311046054292821
934,Exp1,d11032021,zwAoN,rating,34.0,57.0,Lewc1n.jpg,15.109,58.0,0.9021196380768439,0.3192146868775738
935,Exp1,d11032021,zwAoN,rating,35.0,8.0,Klina1.jpg,14.345,63.0,0.8088999987327298,0.6624562856706641
936,Exp1,d11032021,zwAoN,rating,36.0,24.0,Dekoa1.jpg,15.829,68.0,0.9899706070922398,1.0056978844637543
937,Exp1,d11032021,zwAoN,rating,37.0,26.0,Clib1n.jpg,9.016,50.0,0.1586808127840584,-0.22997187119137055
938,Exp1,d11032021,zwAoN,rating,38.0,4.0,Mackb1.jpg,12.736,40.0,0.6125774860302693,-0.916455068777551
939,Exp1,d11032021,zwAoN,rating,39.0,59.0,Kraa1n.jpg,5.26,62.0,-0.2996084089129222,0.593807965912046
940,Exp1,d11032021,zwAoN,rating,40.0,38.0,Lasc1n.jpg,3.237,64.0,-0.5464452287992352,0.7311046054292821
941,Exp1,d11032021,zwAoN,rating,41.0,6.0,Wdekc1.jpg,2.457,40.0,-0.6416171118992471,-0.916455068777551
942,Exp1,d11032021,zwAoN,rating,42.0,34.0,Monb1n.jpg,3.377,58.0,-0.5293630959351304,0.3192146868775738
943,Exp1,d11032021,zwAoN,rating,43.0,25.0,Clifa1.jpg,6.54,74.0,-0.14342890844110767,1.4175878030154625
944,Exp1,d11032021,zwAoN,rating,44.0,46.0,Deka1n.jpg,3.744,19.0,-0.48458350478422735,-2.35806978370853
945,Exp1,d11032021,zwAoN,rating,45.0,41.0,Vincb1.jpg,7.049,65.0,-0.08132315395661267,0.7997529251879001
946,Exp1,d11032021,zwAoN,rating,46.0,53.0,Gorka1.jpg,5.983,62.0,-0.21139139419329572,0.593807965912046
947,Exp1,d11032021,zwAoN,rating,47.0,17.0,Picab1.jpg,2.631,39.0,-0.6203864610538599,-0.9851033885361691
948,Exp1,d11032021,zwAoN,rating,48.0,16.0,Lewa1n.jpg,5.969,76.0,-0.21309960747970613,1.5548844425326986
949,Exp1,d11032021,zwAoN,rating,49.0,54.0,Kupka1.jpg,4.177,68.0,-0.43175090814024647,1.0056978844637543
950,Exp1,d11032021,zwAoN,rating,50.0,36.0,Gorkf1.jpg,3.572,29.0,-0.5055701251601274,-1.6715865861223496
951,Exp1,d11032021,zwAoN,rating,51.0,50.0,Gorke1.jpg,3.904,22.0,-0.4650610672252506,-2.1521248244326756
952,Exp1,d11032021,zwAoN,rating,52.0,3.0,Fogeg1.jpg,3.88,71.0,-0.4679894328590971,1.2116428437396083
953,Exp1,d11032021,zwAoN,rating,53.0,56.0,Luisc1.jpg,4.746,38.0,-0.3623242395711351,-1.0537517082947871
954,Exp1,d11032021,zwAoN,rating,54.0,22.0,Macb1n.jpg,6.551,42.0,-0.142086740858928,-0.7791584292603149
955,Exp1,d11032021,zwAoN,rating,55.0,30.0,Lasse1.jpg,30.384,50.0,2.7659023487854113,-0.22997187119137055
956,Exp1,d11032021,zwAoN,rating,56.0,18.0,Krasb1.jpg,5.215,37.0,-0.3050990944763844,-1.1224000280534052
957,Exp1,d11032021,zwAoN,rating,57.0,37.0,Mondb1.jpg,6.243,87.0,-0.17966743315995834,2.310015959877497
958,Exp1,d11032021,zwAoN,rating,58.0,21.0,Lewb1n.jpg,13.008,81.0,0.6457656298805297,1.8981260413257888
959,Exp1,d11032021,zwAoN,rating,59.0,23.0,Lewib1.jpg,55.276,64.0,5.803105572023228,0.7311046054292821
960,Exp1,d11032021,XikH0,rating,0.0,13.0,Picak1.jpg,4.931,67.0,-0.10455379726242421,-0.06875970733184351
961,Exp1,d11032021,XikH0,rating,1.0,18.0,Krasb1.jpg,2.226,38.0,-0.12744520664516104,-1.5102282706740981
962,Exp1,d11032021,XikH0,rating,2.0,47.0,Kupkd1.jpg,3.48,67.0,-0.11683307083519728,-0.06875970733184351
963,Exp1,d11032021,XikH0,rating,3.0,11.0,Wdekb1.jpg,2.667,18.0,-0.12371318759237475,-2.5043445212549638
964,Exp1,d11032021,XikH0,rating,4.0,17.0,Picab1.jpg,2.669,63.0,-0.12369626233589952,-0.2675829574480166
965,Exp1,d11032021,XikH0,rating,5.0,7.0,Pica1n.jpg,2.062,59.0,-0.1288330776761292,-0.46640620756418966
966,Exp1,d11032021,XikH0,rating,6.0,30.0,Lasse1.jpg,2.124,65.0,-0.12830839472539732,-0.16817133238993004
967,Exp1,d11032021,XikH0,rating,7.0,29.0,Clifb1.jpg,2.094,71.0,-0.12856227357252567,0.13006354278432955
968,Exp1,d11032021,XikH0,rating,8.0,41.0,Vincb1.jpg,2.596,70.0,-0.1243140341972451,0.08035773025528628
969,Exp1,d11032021,XikH0,rating,9.0,38.0,Lasc1n.jpg,2.054,6.0,-0.12890077870203007,-3.1008142716034826
