,Exp,group,PID,phase,block,trial,stimulus_id,reward_type,reward_amount,see_reward_rt,zscored_see_reward_rt,register_reward_response,register_reward_rt,zscored_register_reward_rt,register_reward_acc
0,Pilot,d10012021,arjeO,reward_learning,1.0,0.0,4.0,1.0,153.0,1145.0,4.33192142194694,,,,0
1,Pilot,d10012021,arjeO,reward_learning,1.0,1.0,49.0,-1.0,0.0,1088.0,3.936025404896524,-1.0,920.0,1.9929105203673656,1
2,Pilot,d10012021,arjeO,reward_learning,1.0,2.0,56.0,1.0,149.0,892.0,2.5746987497757954,1.0,919.0,1.9846016245789475,1
3,Pilot,d10012021,arjeO,reward_learning,1.0,3.0,36.0,1.0,150.0,687.0,1.1508621972260538,1.0,952.0,2.258795185596752,1
4,Pilot,d10012021,arjeO,reward_learning,1.0,4.0,32.0,-1.0,0.0,672.0,1.0466790348443653,-1.0,895.0,1.7851881256569078,1
5,Pilot,d10012021,arjeO,reward_learning,1.0,5.0,48.0,-1.0,0.0,694.0,1.1994810063375083,-1.0,765.0,0.7050316731625266,1
6,Pilot,d10012021,arjeO,reward_learning,1.0,6.0,8.0,-1.0,0.0,403.0,-0.8216723438672471,1.0,1176.0,4.119987842202455,0
7,Pilot,d10012021,arjeO,reward_learning,1.0,7.0,40.0,1.0,152.0,640.0,0.82442162176343,1.0,709.0,0.2397335090111009,1
8,Pilot,d10012021,arjeO,reward_learning,1.0,8.0,39.0,-1.0,0.0,526.0,0.0326295876625979,-1.0,810.0,1.078931983641351,1
9,Pilot,d10012021,arjeO,reward_learning,1.0,9.0,19.0,-1.0,0.0,371.0,-1.0439297569481825,-1.0,817.0,1.137094254160279,1
10,Pilot,d10012021,arjeO,reward_learning,1.0,10.0,19.0,-1.0,0.0,389.0,-0.9189099620901564,-1.0,591.0,-0.7407161940222603,1
11,Pilot,d10012021,arjeO,reward_learning,1.0,11.0,7.0,1.0,143.0,372.0,-1.0369842127894031,1.0,710.0,0.2480424047995192,1
12,Pilot,d10012021,arjeO,reward_learning,1.0,12.0,49.0,-1.0,0.0,564.0,0.2965602656962086,-1.0,720.0,0.3311313626837024,1
13,Pilot,d10012021,arjeO,reward_learning,1.0,13.0,4.0,1.0,153.0,363.0,-1.099494110218416,1.0,672.0,-0.0676956351603767,1
14,Pilot,d10012021,arjeO,reward_learning,1.0,14.0,41.0,-1.0,0.0,506.0,-0.1062812955129865,-1.0,749.0,0.5720893405478336,1
15,Pilot,d10012021,arjeO,reward_learning,1.0,15.0,32.0,-1.0,0.0,519.0,-0.0159892214488566,-1.0,761.0,0.6717960900088533,1
16,Pilot,d10012021,arjeO,reward_learning,1.0,16.0,12.0,-1.0,0.0,592.0,0.491035502142027,-1.0,689.0,0.0735555932427346,1
17,Pilot,d10012021,arjeO,reward_learning,1.0,17.0,36.0,1.0,150.0,397.0,-0.8633456088199225,1.0,742.0,0.5139270700289054,1
18,Pilot,d10012021,arjeO,reward_learning,1.0,18.0,56.0,1.0,149.0,524.0,0.0187384993450395,1.0,612.0,-0.5662293824654756,1
19,Pilot,d10012021,arjeO,reward_learning,1.0,19.0,12.0,-1.0,0.0,509.0,-0.0854446630366489,-1.0,746.0,0.5471626531825786,1
20,Pilot,d10012021,arjeO,reward_learning,1.0,20.0,7.0,1.0,143.0,633.0,0.7758028126519754,1.0,635.0,-0.3751247793318544,1
21,Pilot,d10012021,arjeO,reward_learning,1.0,21.0,41.0,-1.0,0.0,445.0,-0.5299594891985195,-1.0,632.0,-0.4000514666971093,1
22,Pilot,d10012021,arjeO,reward_learning,1.0,22.0,39.0,-1.0,0.0,472.0,-0.3424297969114803,-1.0,1170.0,4.070134467471944,1
23,Pilot,d10012021,arjeO,reward_learning,1.0,23.0,8.0,-1.0,0.0,518.0,-0.0229347656076358,-1.0,609.0,-0.5911560698307307,1
24,Pilot,d10012021,arjeO,reward_learning,1.0,24.0,5.0,1.0,151.0,402.0,-0.8286178880260263,1.0,716.0,0.2978957795300291,1
25,Pilot,d10012021,arjeO,reward_learning,1.0,25.0,40.0,1.0,152.0,459.0,-0.4327218709756103,1.0,554.0,-1.048145338193738,1
26,Pilot,d10012021,arjeO,reward_learning,1.0,26.0,47.0,1.0,144.0,605.0,0.581327576206157,1.0,639.0,-0.3418891961781811,1
27,Pilot,d10012021,arjeO,reward_learning,1.0,27.0,5.0,1.0,151.0,472.0,-0.3424297969114803,1.0,544.0,-1.1312342960779211,1
28,Pilot,d10012021,arjeO,reward_learning,1.0,28.0,25.0,1.0,142.0,541.0,0.1368127500442864,1.0,693.0,0.1067911763964079,1
29,Pilot,d10012021,arjeO,reward_learning,1.0,29.0,25.0,1.0,142.0,484.0,-0.2590832670061296,1.0,678.0,-0.0178422604298668,1
30,Pilot,d10012021,arjeO,reward_learning,1.0,30.0,48.0,-1.0,0.0,603.0,0.5674364878885986,-1.0,686.0,0.0486289058774797,1
31,Pilot,d10012021,arjeO,reward_learning,1.0,31.0,47.0,1.0,144.0,502.0,-0.1340634721481035,1.0,543.0,-1.1395431918663397,1
32,Pilot,d10012021,arjeO,reward_learning,2.0,32.0,25.0,1.0,142.0,731.0,1.4564661402123398,1.0,687.0,0.056937801665898,1
33,Pilot,d10012021,arjeO,reward_learning,2.0,33.0,36.0,1.0,150.0,584.0,0.4354711488717932,1.0,756.0,0.6302516110667618,1
34,Pilot,d10012021,arjeO,reward_learning,2.0,34.0,39.0,-1.0,0.0,678.0,1.0883522997970407,-1.0,661.0,-0.1590934888329782,1
35,Pilot,d10012021,arjeO,reward_learning,2.0,35.0,4.0,1.0,153.0,337.0,-1.280078258346676,1.0,741.0,0.505618174240487,1
36,Pilot,d10012021,arjeO,reward_learning,2.0,36.0,41.0,-1.0,0.0,479.0,-0.2938109878000257,-1.0,621.0,-0.4914493203697108,1
37,Pilot,d10012021,arjeO,reward_learning,2.0,37.0,49.0,-1.0,0.0,451.0,-0.4882862242458441,-1.0,645.0,-0.2920358214476712,1
38,Pilot,d10012021,arjeO,reward_learning,2.0,38.0,19.0,-1.0,0.0,398.0,-0.8564000646611433,-1.0,679.0,-0.0095333646414485,1
39,Pilot,d10012021,arjeO,reward_learning,2.0,39.0,48.0,-1.0,0.0,463.0,-0.4049396943404934,-1.0,895.0,1.7851881256569078,1
40,Pilot,d10012021,arjeO,reward_learning,2.0,40.0,7.0,1.0,143.0,488.0,-0.2313010903710126,1.0,663.0,-0.1424756972561415,1
41,Pilot,d10012021,arjeO,reward_learning,2.0,41.0,40.0,1.0,152.0,445.0,-0.5299594891985195,1.0,629.0,-0.4249781540623643,1
42,Pilot,d10012021,arjeO,reward_learning,2.0,42.0,19.0,-1.0,0.0,407.0,-0.7938901672321301,-1.0,676.0,-0.0344600520067034,1
43,Pilot,d10012021,arjeO,reward_learning,2.0,43.0,49.0,-1.0,0.0,558.0,0.2548870007435332,-1.0,710.0,0.2480424047995192,1
44,Pilot,d10012021,arjeO,reward_learning,2.0,44.0,47.0,1.0,144.0,674.0,1.0605701231619238,1.0,808.0,1.0623141920645145,1
45,Pilot,d10012021,arjeO,reward_learning,2.0,45.0,41.0,-1.0,0.0,398.0,-0.8564000646611433,-1.0,621.0,-0.4914493203697108,1
46,Pilot,d10012021,arjeO,reward_learning,2.0,46.0,12.0,-1.0,0.0,609.0,0.6091097528412739,-1.0,612.0,-0.5662293824654756,1
47,Pilot,d10012021,arjeO,reward_learning,2.0,47.0,25.0,1.0,142.0,418.0,-0.7174891814855586,1.0,675.0,-0.0427689477951217,1
48,Pilot,d10012021,arjeO,reward_learning,2.0,48.0,5.0,1.0,151.0,502.0,-0.1340634721481035,1.0,705.0,0.2064979258574276,1
49,Pilot,d10012021,arjeO,reward_learning,2.0,49.0,5.0,1.0,151.0,465.0,-0.3910486060229349,1.0,647.0,-0.2754180298708346,1
50,Pilot,d10012021,arjeO,reward_learning,2.0,50.0,56.0,1.0,149.0,494.0,-0.1896278254183373,1.0,691.0,0.0901733848195712,1
51,Pilot,d10012021,arjeO,reward_learning,2.0,51.0,40.0,1.0,152.0,407.0,-0.7938901672321301,1.0,612.0,-0.5662293824654756,1
52,Pilot,d10012021,arjeO,reward_learning,2.0,52.0,47.0,1.0,144.0,470.0,-0.3563208852290388,1.0,578.0,-0.8487318392716984,1
53,Pilot,d10012021,arjeO,reward_learning,2.0,53.0,56.0,1.0,149.0,405.0,-0.8077812555496886,1.0,608.0,-0.599464965619149,1
54,Pilot,d10012021,arjeO,reward_learning,2.0,54.0,36.0,1.0,150.0,580.0,0.4076889722366763,1.0,601.0,-0.6576272361380772,1
55,Pilot,d10012021,arjeO,reward_learning,2.0,55.0,7.0,1.0,143.0,401.0,-0.8355634321848056,1.0,576.0,-0.865349630848535,1
56,Pilot,d10012021,arjeO,reward_learning,2.0,56.0,48.0,-1.0,0.0,436.0,-0.5924693866275326,-1.0,688.0,0.0652466974543163,1
57,Pilot,d10012021,arjeO,reward_learning,2.0,57.0,8.0,-1.0,0.0,582.0,0.4215800605542347,-1.0,765.0,0.7050316731625266,1
58,Pilot,d10012021,arjeO,reward_learning,2.0,58.0,32.0,-1.0,0.0,743.0,1.5398126701176906,-1.0,620.0,-0.4997582161581291,1
59,Pilot,d10012021,arjeO,reward_learning,2.0,59.0,8.0,-1.0,0.0,585.0,0.4424166930305724,-1.0,562.0,-0.9816741718863914,1
60,Pilot,d10012021,arjeO,reward_learning,2.0,60.0,12.0,-1.0,0.0,393.0,-0.8911277854550393,-1.0,701.0,0.1732623427037544,1
61,Pilot,d10012021,arjeO,reward_learning,2.0,61.0,39.0,-1.0,0.0,546.0,0.1715404708381825,-1.0,583.0,-0.8071873603296068,1
62,Pilot,d10012021,arjeO,reward_learning,2.0,62.0,32.0,-1.0,0.0,745.0,1.5537037584352489,-1.0,640.0,-0.3335803003897628,1
63,Pilot,d10012021,arjeO,reward_learning,2.0,63.0,4.0,1.0,153.0,412.0,-0.759162446438234,1.0,697.0,0.1400267595500811,1
64,Pilot,d10012021,arjeO,reward_learning,3.0,64.0,8.0,-1.0,0.0,653.0,0.91471369582756,-1.0,603.0,-0.6410094445612405,1
65,Pilot,d10012021,arjeO,reward_learning,3.0,65.0,8.0,-1.0,0.0,500.0,-0.1479545604656619,-1.0,539.0,-1.1727787750200127,1
66,Pilot,d10012021,arjeO,reward_learning,3.0,66.0,48.0,-1.0,0.0,565.0,0.3035058098549879,-1.0,753.0,0.6053249237015068,1
67,Pilot,d10012021,arjeO,reward_learning,3.0,67.0,4.0,1.0,153.0,467.0,-0.3771575177053765,1.0,671.0,-0.076004530948795,1
68,Pilot,d10012021,arjeO,reward_learning,3.0,68.0,36.0,1.0,150.0,563.0,0.2896147215374294,1.0,636.0,-0.3668158835434361,1
69,Pilot,d10012021,arjeO,reward_learning,3.0,69.0,40.0,1.0,152.0,465.0,-0.3910486060229349,-1.0,728.0,0.397602528991049,0
70,Pilot,d10012021,arjeO,reward_learning,3.0,70.0,47.0,1.0,144.0,752.0,1.6023225675467037,1.0,484.0,-1.62976804338302,1
71,Pilot,d10012021,arjeO,reward_learning,3.0,71.0,47.0,1.0,144.0,494.0,-0.1896278254183373,1.0,475.0,-1.704548105478785,1
72,Pilot,d10012021,arjeO,reward_learning,3.0,72.0,12.0,-1.0,0.0,652.0,0.9077681516687808,-1.0,622.0,-0.4831404245812925,1
73,Pilot,d10012021,arjeO,reward_learning,3.0,73.0,56.0,1.0,149.0,421.0,-0.696652549009221,1.0,555.0,-1.0398364424053197,1
74,Pilot,d10012021,arjeO,reward_learning,3.0,74.0,25.0,1.0,142.0,515.0,-0.0437713980839735,1.0,616.0,-0.5329937993118024,1
75,Pilot,d10012021,arjeO,reward_learning,3.0,75.0,36.0,1.0,150.0,351.0,-1.182840640123767,1.0,575.0,-0.8736585266369533,1
76,Pilot,d10012021,arjeO,reward_learning,3.0,76.0,7.0,1.0,143.0,510.0,-0.0784991188778696,1.0,537.0,-1.1893965665968491,1
77,Pilot,d10012021,arjeO,reward_learning,3.0,77.0,41.0,-1.0,0.0,636.0,0.7966394451283131,-1.0,646.0,-0.2837269256592529,1
78,Pilot,d10012021,arjeO,reward_learning,3.0,78.0,49.0,-1.0,0.0,486.0,-0.2451921786885711,-1.0,710.0,0.2480424047995192,1
79,Pilot,d10012021,arjeO,reward_learning,3.0,79.0,56.0,1.0,149.0,417.0,-0.7244347256443379,1.0,599.0,-0.6742450277149138,1
80,Pilot,d10012021,arjeO,reward_learning,3.0,80.0,25.0,1.0,142.0,372.0,-1.0369842127894031,1.0,562.0,-0.9816741718863914,1
81,Pilot,d10012021,arjeO,reward_learning,3.0,81.0,39.0,-1.0,0.0,400.0,-0.8425089763435848,-1.0,664.0,-0.1341668014677232,1
82,Pilot,d10012021,arjeO,reward_learning,3.0,82.0,12.0,-1.0,0.0,814.0,2.0329463053910155,-1.0,609.0,-0.5911560698307307,1
83,Pilot,d10012021,arjeO,reward_learning,3.0,83.0,7.0,1.0,143.0,522.0,0.004847411027481,1.0,703.0,0.189880134280591,1
84,Pilot,d10012021,arjeO,reward_learning,3.0,84.0,48.0,-1.0,0.0,438.0,-0.5785782983099741,-1.0,533.0,-1.2226321497505226,1
85,Pilot,d10012021,arjeO,reward_learning,3.0,85.0,5.0,1.0,151.0,388.0,-0.9258555062489356,1.0,587.0,-0.7739517771759336,1
86,Pilot,d10012021,arjeO,reward_learning,3.0,86.0,49.0,-1.0,0.0,566.0,0.3104513540137671,-1.0,657.0,-0.1923290719866514,1
87,Pilot,d10012021,arjeO,reward_learning,3.0,87.0,5.0,1.0,151.0,374.0,-1.0230931244718446,1.0,618.0,-0.5163760077349657,1
88,Pilot,d10012021,arjeO,reward_learning,3.0,88.0,4.0,1.0,153.0,563.0,0.2896147215374294,1.0,567.0,-0.9401296929442998,1
89,Pilot,d10012021,arjeO,reward_learning,3.0,89.0,41.0,-1.0,0.0,412.0,-0.759162446438234,-1.0,676.0,-0.0344600520067034,1
90,Pilot,d10012021,arjeO,reward_learning,3.0,90.0,19.0,-1.0,0.0,461.0,-0.4188307826580518,-1.0,963.0,2.350193039269353,1
91,Pilot,d10012021,arjeO,reward_learning,3.0,91.0,40.0,1.0,152.0,370.0,-1.0508753011069616,1.0,611.0,-0.5745382782538939,1
92,Pilot,d10012021,arjeO,reward_learning,3.0,92.0,32.0,-1.0,0.0,454.0,-0.4674495917695064,-1.0,666.0,-0.1175490098908866,1
93,Pilot,d10012021,arjeO,reward_learning,3.0,93.0,32.0,-1.0,0.0,500.0,-0.1479545604656619,-1.0,688.0,0.0652466974543163,1
94,Pilot,d10012021,arjeO,reward_learning,3.0,94.0,39.0,-1.0,0.0,362.0,-1.1064396543771955,-1.0,687.0,0.056937801665898,1
95,Pilot,d10012021,arjeO,reward_learning,3.0,95.0,19.0,-1.0,0.0,329.0,-1.33564261161691,-1.0,667.0,-0.1092401141024683,1
96,Pilot,d10012021,A26v1,reward_learning,1.0,0.0,40.0,1.0,145.0,909.0,2.2766641909451426,,,,0
97,Pilot,d10012021,A26v1,reward_learning,1.0,1.0,12.0,-1.0,0.0,665.0,0.6816714585180745,-1.0,884.0,0.8563234767845455,1
98,Pilot,d10012021,A26v1,reward_learning,1.0,2.0,2.0,1.0,156.0,628.0,0.4398078064697077,1.0,581.0,-0.3643000390737856,1
99,Pilot,d10012021,A26v1,reward_learning,1.0,3.0,40.0,1.0,145.0,609.0,0.3156075527151409,1.0,1026.0,1.4283648604541264,1
100,Pilot,d10012021,A26v1,reward_learning,1.0,4.0,15.0,1.0,155.0,720.0,1.0411985088602416,1.0,660.0,-0.0460516636519765,1
101,Pilot,d10012021,A26v1,reward_learning,1.0,5.0,4.0,1.0,150.0,598.0,0.2437021426467075,1.0,743.0,0.2883105535633419,1
102,Pilot,d10012021,A26v1,reward_learning,1.0,6.0,2.0,1.0,156.0,487.0,-0.4818888134983931,1.0,520.0,-0.6100361264248028,1
103,Pilot,d10012021,A26v1,reward_learning,1.0,7.0,6.0,1.0,151.0,427.0,-0.8741001411443935,1.0,642.0,-0.1185639517227684,1
104,Pilot,d10012021,A26v1,reward_learning,1.0,8.0,52.0,-1.0,0.0,860.0,1.956358273367576,-1.0,903.0,0.9328642253037148,1
105,Pilot,d10012021,A26v1,reward_learning,1.0,9.0,25.0,1.0,141.0,618.0,0.3744392518620409,-1.0,953.0,1.1342872477225812,0
106,Pilot,d10012021,A26v1,reward_learning,1.0,10.0,50.0,-1.0,0.0,781.0,1.4399466919670083,1.0,1064.0,1.5814463574924649,0
107,Pilot,d10012021,A26v1,reward_learning,1.0,11.0,48.0,-1.0,0.0,669.0,0.7078188803611413,-1.0,801.0,0.521961259569227,1
108,Pilot,d10012021,A26v1,reward_learning,1.0,12.0,25.0,1.0,141.0,689.0,0.8385559895764747,1.0,1577.0,3.6480465675100353,1
109,Pilot,d10012021,A26v1,reward_learning,1.0,13.0,3.0,1.0,148.0,577.0,0.1064281779706073,1.0,622.0,-0.1991331606903151,1
110,Pilot,d10012021,A26v1,reward_learning,1.0,14.0,3.0,1.0,148.0,704.0,0.9366088214879748,1.0,661.0,-0.0420232032035991,1
111,Pilot,d10012021,A26v1,reward_learning,1.0,15.0,32.0,-1.0,0.0,567.0,0.0410596233629406,-1.0,984.0,1.2591695216222785,1
112,Pilot,d10012021,A26v1,reward_learning,1.0,16.0,48.0,-1.0,0.0,900.0,2.2178324917982426,-1.0,1105.0,1.7466132358759354,1
113,Pilot,d10012021,A26v1,reward_learning,1.0,17.0,7.0,-1.0,0.0,539.0,-0.1419723295385261,-1.0,743.0,0.2883105535633419,1
114,Pilot,d10012021,A26v1,reward_learning,1.0,18.0,27.0,1.0,153.0,739.0,1.1653987626148083,1.0,883.0,0.8522950163361681,1
115,Pilot,d10012021,A26v1,reward_learning,1.0,19.0,29.0,-1.0,0.0,427.0,-0.8741001411443935,-1.0,681.0,0.0385460057639474,1
116,Pilot,d10012021,A26v1,reward_learning,1.0,20.0,52.0,-1.0,0.0,576.0,0.0998913225098407,-1.0,772.0,0.4051359065662844,1
117,Pilot,d10012021,A26v1,reward_learning,1.0,21.0,27.0,1.0,153.0,788.0,1.4857046801923752,1.0,784.0,0.4534774319468124,1
118,Pilot,d10012021,A26v1,reward_learning,1.0,22.0,4.0,1.0,150.0,641.0,0.5247869274596744,1.0,492.0,-0.722833018979368,1
119,Pilot,d10012021,A26v1,reward_learning,1.0,23.0,43.0,-1.0,0.0,688.0,0.832019134115708,-1.0,691.0,0.0788306102477207,1
120,Pilot,d10012021,A26v1,reward_learning,1.0,24.0,7.0,-1.0,0.0,477.0,-0.5472573681060598,-1.0,580.0,-0.3683284995221629,1
121,Pilot,d10012021,A26v1,reward_learning,1.0,25.0,29.0,-1.0,0.0,427.0,-0.8741001411443935,-1.0,691.0,0.0788306102477207,1
122,Pilot,d10012021,A26v1,reward_learning,1.0,26.0,15.0,1.0,155.0,638.0,0.5051763610773744,1.0,1186.0,2.072918532194499,1
123,Pilot,d10012021,A26v1,reward_learning,1.0,27.0,50.0,-1.0,0.0,660.0,0.6489871812142411,-1.0,663.0,-0.0339662823068445,1
124,Pilot,d10012021,A26v1,reward_learning,1.0,28.0,32.0,-1.0,0.0,469.0,-0.5995522117921932,-1.0,581.0,-0.3643000390737856,1
125,Pilot,d10012021,A26v1,reward_learning,1.0,29.0,12.0,-1.0,0.0,327.0,-1.527785687221061,-1.0,761.0,0.3608228416341338,1
126,Pilot,d10012021,A26v1,reward_learning,1.0,30.0,43.0,-1.0,0.0,669.0,0.7078188803611413,-1.0,591.0,-0.3240154345900123,1
127,Pilot,d10012021,A26v1,reward_learning,1.0,31.0,6.0,1.0,151.0,660.0,0.6489871812142411,1.0,952.0,1.1302587872742038,1
128,Pilot,d10012021,A26v1,reward_learning,2.0,32.0,3.0,1.0,148.0,627.0,0.433270951008941,1.0,784.0,0.4534774319468124,1
129,Pilot,d10012021,A26v1,reward_learning,2.0,33.0,15.0,1.0,155.0,560.0,-0.004698364862426,1.0,399.0,-1.0974798406784596,1
130,Pilot,d10012021,A26v1,reward_learning,2.0,34.0,32.0,-1.0,0.0,406.0,-1.0113741058204937,-1.0,632.0,-0.1588485562065417,1
131,Pilot,d10012021,A26v1,reward_learning,2.0,35.0,27.0,1.0,153.0,346.0,-1.403585433466494,1.0,864.0,0.7757542678169989,1
132,Pilot,d10012021,A26v1,reward_learning,2.0,36.0,25.0,1.0,141.0,447.0,-0.7433630319290601,1.0,823.0,0.6105873894335283,1
133,Pilot,d10012021,A26v1,reward_learning,2.0,37.0,48.0,-1.0,0.0,683.0,0.7993348568118747,-1.0,643.0,-0.1145354912743911,1
134,Pilot,d10012021,A26v1,reward_learning,2.0,38.0,25.0,1.0,141.0,690.0,0.8450928450372414,1.0,601.0,-0.283730830106239,1
135,Pilot,d10012021,A26v1,reward_learning,2.0,39.0,29.0,-1.0,0.0,316.0,-1.5996910972894942,-1.0,600.0,-0.2877592905546163,1
136,Pilot,d10012021,A26v1,reward_learning,2.0,40.0,43.0,-1.0,0.0,538.0,-0.1485091849992928,-1.0,984.0,1.2591695216222785,1
137,Pilot,d10012021,A26v1,reward_learning,2.0,41.0,50.0,-1.0,0.0,526.0,-0.2269514505284929,-1.0,350.0,-1.294874402648949,1
138,Pilot,d10012021,A26v1,reward_learning,2.0,42.0,4.0,1.0,150.0,325.0,-1.540859398142594,1.0,731.0,0.2399690281828139,1
139,Pilot,d10012021,A26v1,reward_learning,2.0,43.0,3.0,1.0,148.0,697.0,0.890850833262608,1.0,480.0,-0.771174544359896,1
140,Pilot,d10012021,A26v1,reward_learning,2.0,44.0,50.0,-1.0,0.0,345.0,-1.4101222889272609,-1.0,622.0,-0.1991331606903151,1
141,Pilot,d10012021,A26v1,reward_learning,2.0,45.0,43.0,-1.0,0.0,598.0,0.2437021426467075,-1.0,530.0,-0.5697515219410294,1
142,Pilot,d10012021,A26v1,reward_learning,2.0,46.0,6.0,1.0,151.0,729.0,1.1000302080071416,1.0,802.0,0.5259897200176044,1
143,Pilot,d10012021,A26v1,reward_learning,2.0,47.0,6.0,1.0,151.0,556.0,-0.0308457867054927,1.0,732.0,0.2439974886311912,1
144,Pilot,d10012021,A26v1,reward_learning,2.0,48.0,40.0,1.0,145.0,456.0,-0.6845313327821599,1.0,500.0,-0.6906053353923494,1
145,Pilot,d10012021,A26v1,reward_learning,2.0,49.0,4.0,1.0,150.0,364.0,-1.285922035172694,1.0,1508.0,3.3700827965719995,1
146,Pilot,d10012021,A26v1,reward_learning,2.0,50.0,12.0,-1.0,0.0,458.0,-0.6714576218606266,-1.0,531.0,-0.5657230614926522,1
147,Pilot,d10012021,A26v1,reward_learning,2.0,51.0,12.0,-1.0,0.0,627.0,0.433270951008941,-1.0,319.0,-1.4197566765486462,1
148,Pilot,d10012021,A26v1,reward_learning,2.0,52.0,27.0,1.0,153.0,547.0,-0.0896774858523927,1.0,1537.0,3.486908149574942,1
149,Pilot,d10012021,A26v1,reward_learning,2.0,53.0,2.0,1.0,156.0,385.0,-1.1486480704965938,1.0,390.0,-1.1337359847138555,1
150,Pilot,d10012021,A26v1,reward_learning,2.0,54.0,7.0,-1.0,0.0,366.0,-1.2728483242511606,-1.0,530.0,-0.5697515219410294,1
151,Pilot,d10012021,A26v1,reward_learning,2.0,55.0,52.0,-1.0,0.0,840.0,1.8256211641522424,-1.0,632.0,-0.1588485562065417,1
152,Pilot,d10012021,A26v1,reward_learning,2.0,56.0,32.0,-1.0,0.0,558.0,-0.0177720757839593,-1.0,349.0,-1.2989028630973265,1
153,Pilot,d10012021,A26v1,reward_learning,2.0,57.0,7.0,-1.0,0.0,478.0,-0.5407205126452932,-1.0,288.0,-1.544638950448343,1
154,Pilot,d10012021,A26v1,reward_learning,2.0,58.0,48.0,-1.0,0.0,406.0,-1.0113741058204937,-1.0,319.0,-1.4197566765486462,1
155,Pilot,d10012021,A26v1,reward_learning,2.0,59.0,15.0,1.0,155.0,456.0,-0.6845313327821599,1.0,481.0,-0.7671460839115186,1
156,Pilot,d10012021,A26v1,reward_learning,2.0,60.0,52.0,-1.0,0.0,589.0,0.1848704434998074,-1.0,278.0,-1.5849235549321166,1
157,Pilot,d10012021,A26v1,reward_learning,2.0,61.0,29.0,-1.0,0.0,384.0,-1.1551849259573603,-1.0,380.0,-1.174020589197629,1
158,Pilot,d10012021,A26v1,reward_learning,2.0,62.0,40.0,1.0,145.0,578.0,0.112965033431374,-1.0,240.0,-1.7380050519704553,0
159,Pilot,d10012021,A26v1,reward_learning,2.0,63.0,2.0,1.0,156.0,539.0,-0.1419723295385261,1.0,661.0,-0.0420232032035991,1
160,Pilot,d10012021,A26v1,reward_learning,3.0,64.0,43.0,-1.0,0.0,466.0,-0.6191627781744933,-1.0,672.0,0.0022898617285514,1
161,Pilot,d10012021,A26v1,reward_learning,3.0,65.0,2.0,1.0,156.0,415.0,-0.9525424066735936,1.0,642.0,-0.1185639517227684,1
162,Pilot,d10012021,A26v1,reward_learning,3.0,66.0,48.0,-1.0,0.0,317.0,-1.5931542418287274,-1.0,630.0,-0.1669054771032964,1
163,Pilot,d10012021,A26v1,reward_learning,3.0,67.0,7.0,-1.0,0.0,414.0,-0.9590792621343602,-1.0,631.0,-0.1628770166549191,1
164,Pilot,d10012021,A26v1,reward_learning,3.0,68.0,3.0,1.0,148.0,920.0,2.348569601013576,1.0,490.0,-0.7308899398761226,1
165,Pilot,d10012021,A26v1,reward_learning,3.0,69.0,3.0,1.0,148.0,637.0,0.4986395056166077,1.0,631.0,-0.1628770166549191,1
166,Pilot,d10012021,A26v1,reward_learning,3.0,70.0,6.0,1.0,151.0,667.0,0.6947451694396078,1.0,662.0,-0.0379947427552218,1
167,Pilot,d10012021,A26v1,reward_learning,3.0,71.0,4.0,1.0,150.0,506.0,-0.3576885597438263,1.0,530.0,-0.5697515219410294,1
168,Pilot,d10012021,A26v1,reward_learning,3.0,72.0,52.0,-1.0,0.0,327.0,-1.527785687221061,-1.0,771.0,0.4011074461179071,1
169,Pilot,d10012021,A26v1,reward_learning,3.0,73.0,40.0,1.0,145.0,314.0,-1.6127648082110275,1.0,723.0,0.2077413445957952,1
170,Pilot,d10012021,A26v1,reward_learning,3.0,74.0,7.0,-1.0,0.0,548.0,-0.0831406303916261,-1.0,722.0,0.2037128841474179,1
171,Pilot,d10012021,A26v1,reward_learning,3.0,75.0,12.0,-1.0,0.0,465.0,-0.6256996336352599,-1.0,913.0,0.973148829787488,1
172,Pilot,d10012021,A26v1,reward_learning,3.0,76.0,29.0,-1.0,0.0,536.0,-0.1615828959208261,-1.0,964.0,1.1786003126547318,1
173,Pilot,d10012021,A26v1,reward_learning,3.0,77.0,48.0,-1.0,0.0,527.0,-0.2204145950677262,-1.0,661.0,-0.0420232032035991,1
174,Pilot,d10012021,A26v1,reward_learning,3.0,78.0,6.0,1.0,151.0,437.0,-0.8087315865367267,1.0,582.0,-0.3602715786254082,1
175,Pilot,d10012021,A26v1,reward_learning,3.0,79.0,32.0,-1.0,0.0,561.0,0.0018384905983406,-1.0,611.0,-0.2434462256224657,1
176,Pilot,d10012021,A26v1,reward_learning,3.0,80.0,15.0,1.0,155.0,426.0,-0.8806369966051601,1.0,582.0,-0.3602715786254082,1
177,Pilot,d10012021,A26v1,reward_learning,3.0,81.0,32.0,-1.0,0.0,257.0,-1.985365569474728,-1.0,521.0,-0.6060076659764254,1
178,Pilot,d10012021,A26v1,reward_learning,3.0,82.0,50.0,-1.0,0.0,566.0,0.0345227679021739,-1.0,521.0,-0.6060076659764254,1
179,Pilot,d10012021,A26v1,reward_learning,3.0,83.0,50.0,-1.0,0.0,407.0,-1.004837250359727,-1.0,450.0,-0.8920283578112159,1
180,Pilot,d10012021,A26v1,reward_learning,3.0,84.0,15.0,1.0,155.0,547.0,-0.0896774858523927,-1.0,379.0,-1.1780490496460063,0
181,Pilot,d10012021,A26v1,reward_learning,3.0,85.0,27.0,1.0,153.0,476.0,-0.5537942235668265,1.0,410.0,-1.053166775746309,1
182,Pilot,d10012021,A26v1,reward_learning,3.0,86.0,12.0,-1.0,0.0,448.0,-0.7368261764682934,-1.0,461.0,-0.8477152928790652,1
183,Pilot,d10012021,A26v1,reward_learning,3.0,87.0,29.0,-1.0,0.0,355.0,-1.344753734319594,-1.0,470.0,-0.8114591488436693,1
184,Pilot,d10012021,A26v1,reward_learning,3.0,88.0,43.0,-1.0,0.0,749.0,1.2307673172224751,-1.0,512.0,-0.6422638100118214,1
185,Pilot,d10012021,A26v1,reward_learning,3.0,89.0,25.0,1.0,141.0,628.0,0.4398078064697077,1.0,641.0,-0.1225924121711458,1
186,Pilot,d10012021,A26v1,reward_learning,3.0,90.0,25.0,1.0,141.0,599.0,0.2502389981074742,1.0,510.0,-0.650320730908576,1
187,Pilot,d10012021,A26v1,reward_learning,3.0,91.0,52.0,-1.0,0.0,606.0,0.2959969863328409,-1.0,571.0,-0.4045846435575589,1
188,Pilot,d10012021,A26v1,reward_learning,3.0,92.0,4.0,1.0,150.0,820.0,1.6948840549369089,1.0,753.0,0.3285951580471152,1
189,Pilot,d10012021,A26v1,reward_learning,3.0,93.0,40.0,1.0,145.0,860.0,1.956358273367576,1.0,721.0,0.1996844236990406,1
190,Pilot,d10012021,A26v1,reward_learning,3.0,94.0,27.0,1.0,153.0,736.0,1.1457881962325085,1.0,692.0,0.082859070696098,1
191,Pilot,d10012021,A26v1,reward_learning,3.0,95.0,2.0,1.0,156.0,739.0,1.1653987626148083,1.0,460.0,-0.8517437533274426,1
192,Pilot,d10012021,eoRdQ,reward_learning,1.0,0.0,21.0,1.0,157.0,1270.0,3.741383158080015,,,,0
193,Pilot,d10012021,eoRdQ,reward_learning,1.0,1.0,41.0,-1.0,0.0,1402.0,4.319909440604816,-1.0,1204.0,3.176038404932909,1
194,Pilot,d10012021,eoRdQ,reward_learning,1.0,2.0,39.0,1.0,148.0,1036.0,2.715813839058777,1.0,952.0,1.8433881654430515,1
195,Pilot,d10012021,eoRdQ,reward_learning,1.0,3.0,31.0,-1.0,0.0,1536.0,4.907201272864841,-1.0,945.0,1.806370103235,1
196,Pilot,d10012021,eoRdQ,reward_learning,1.0,4.0,48.0,-1.0,0.0,427.0,0.0467039446829917,-1.0,715.0,0.5900623449704466,1
197,Pilot,d10012021,eoRdQ,reward_learning,1.0,5.0,40.0,-1.0,0.0,437.0,0.090531693359113,-1.0,634.0,0.161710482277278,1
198,Pilot,d10012021,eoRdQ,reward_learning,1.0,6.0,52.0,1.0,141.0,688.0,1.190608185129757,1.0,613.0,0.0506562956531232,1
199,Pilot,d10012021,eoRdQ,reward_learning,1.0,7.0,21.0,1.0,157.0,578.0,0.7085029496924229,1.0,616.0,0.0665211794565738,1
200,Pilot,d10012021,eoRdQ,reward_learning,1.0,8.0,35.0,-1.0,0.0,398.0,-0.0803965264777599,-1.0,730.0,0.6693867639877001,1
201,Pilot,d10012021,eoRdQ,reward_learning,1.0,9.0,37.0,1.0,150.0,407.0,-0.0409515526692508,1.0,762.0,0.8386121912245075,1
202,Pilot,d10012021,eoRdQ,reward_learning,1.0,10.0,45.0,1.0,155.0,361.0,-0.2425591965794086,1.0,617.0,0.0718094740577241,1
203,Pilot,d10012021,eoRdQ,reward_learning,1.0,11.0,14.0,1.0,159.0,292.0,-0.5449706624446454,1.0,481.0,-0.6473985916987072,1
204,Pilot,d10012021,eoRdQ,reward_learning,1.0,12.0,41.0,-1.0,0.0,284.0,-0.5800328613855424,-1.0,675.0,0.3785305609244375,1
205,Pilot,d10012021,eoRdQ,reward_learning,1.0,13.0,14.0,1.0,159.0,267.0,-0.6545400341349487,1.0,498.0,-0.5574975834791532,1
206,Pilot,d10012021,eoRdQ,reward_learning,1.0,14.0,56.0,-1.0,0.0,327.0,-0.391573542078221,-1.0,722.0,0.6270804071784983,1
207,Pilot,d10012021,eoRdQ,reward_learning,1.0,15.0,45.0,1.0,155.0,285.0,-0.5756500865179304,1.0,554.0,-0.2613530858147403,1
208,Pilot,d10012021,eoRdQ,reward_learning,1.0,16.0,1.0,-1.0,0.0,434.0,0.0773833687562766,-1.0,698.0,0.5001613367508928,1
209,Pilot,d10012021,eoRdQ,reward_learning,1.0,17.0,37.0,1.0,150.0,339.0,-0.3389802436668754,1.0,448.0,-0.8219123135366648,1
210,Pilot,d10012021,eoRdQ,reward_learning,1.0,18.0,31.0,-1.0,0.0,304.0,-0.4923773640332999,-1.0,715.0,0.5900623449704466,1
211,Pilot,d10012021,eoRdQ,reward_learning,1.0,19.0,39.0,1.0,148.0,321.0,-0.4178701912838937,1.0,458.0,-0.7690293675251625,1
212,Pilot,d10012021,eoRdQ,reward_learning,1.0,20.0,56.0,-1.0,0.0,295.0,-0.5318223378418091,-1.0,554.0,-0.2613530858147403,1
213,Pilot,d10012021,eoRdQ,reward_learning,1.0,21.0,35.0,-1.0,0.0,299.0,-0.5142912383713605,-1.0,609.0,0.0295031172485222,1
214,Pilot,d10012021,eoRdQ,reward_learning,1.0,22.0,48.0,-1.0,0.0,337.0,-0.3477457934020997,-1.0,617.0,0.0718094740577241,1
215,Pilot,d10012021,eoRdQ,reward_learning,1.0,23.0,55.0,1.0,157.0,394.0,-0.0979276259482084,1.0,499.0,-0.552209288878003,1
216,Pilot,d10012021,eoRdQ,reward_learning,1.0,24.0,52.0,1.0,141.0,301.0,-0.5055256886361362,1.0,510.0,-0.4940380482653505,1
217,Pilot,d10012021,eoRdQ,reward_learning,1.0,25.0,33.0,-1.0,0.0,436.0,0.0861489184915008,-1.0,590.0,-0.0709744801733321,1
218,Pilot,d10012021,eoRdQ,reward_learning,1.0,26.0,57.0,1.0,149.0,298.0,-0.5186740132389727,1.0,482.0,-0.642110297097557,1
219,Pilot,d10012021,eoRdQ,reward_learning,1.0,27.0,55.0,1.0,157.0,300.0,-0.5099084635037484,1.0,426.0,-0.9382547947619698,1
220,Pilot,d10012021,eoRdQ,reward_learning,1.0,28.0,57.0,1.0,149.0,323.0,-0.4091046415486695,1.0,459.0,-0.7637410729240123,1
221,Pilot,d10012021,eoRdQ,reward_learning,1.0,29.0,33.0,-1.0,0.0,306.0,-0.4836118142980756,-1.0,705.0,0.5371793989589444,1
222,Pilot,d10012021,eoRdQ,reward_learning,1.0,30.0,1.0,-1.0,0.0,312.0,-0.4573151650924029,-1.0,657.0,0.2833412581037333,1
223,Pilot,d10012021,eoRdQ,reward_learning,1.0,31.0,40.0,-1.0,0.0,330.0,-0.3784252174753846,-1.0,530.0,-0.3882721562423459,1
224,Pilot,d10012021,eoRdQ,reward_learning,2.0,32.0,48.0,-1.0,0.0,457.0,0.1781871907113555,-1.0,630.0,0.1405573038726771,1
225,Pilot,d10012021,eoRdQ,reward_learning,2.0,33.0,1.0,-1.0,0.0,524.0,0.471833106841368,-1.0,594.0,-0.0498213017687311,1
226,Pilot,d10012021,eoRdQ,reward_learning,2.0,34.0,41.0,-1.0,0.0,320.0,-0.4222529661515058,-1.0,682.0,0.4155486231324891,1
227,Pilot,d10012021,eoRdQ,reward_learning,2.0,35.0,52.0,1.0,141.0,283.0,-0.5844156362531546,1.0,521.0,-0.435866807652698,1
228,Pilot,d10012021,eoRdQ,reward_learning,2.0,36.0,41.0,-1.0,0.0,278.0,-0.6063295105912152,-1.0,586.0,-0.092127658577933,1
229,Pilot,d10012021,eoRdQ,reward_learning,2.0,37.0,33.0,-1.0,0.0,320.0,-0.4222529661515058,-1.0,586.0,-0.092127658577933,1
230,Pilot,d10012021,eoRdQ,reward_learning,2.0,38.0,35.0,-1.0,0.0,314.0,-0.4485496153571786,-1.0,554.0,-0.2613530858147403,1
231,Pilot,d10012021,eoRdQ,reward_learning,2.0,39.0,55.0,1.0,157.0,313.0,-0.4529323902247907,1.0,570.0,-0.1767403721963367,1
232,Pilot,d10012021,eoRdQ,reward_learning,2.0,40.0,1.0,-1.0,0.0,366.0,-0.220645322241348,-1.0,514.0,-0.4728848698607496,1
233,Pilot,d10012021,eoRdQ,reward_learning,2.0,41.0,57.0,1.0,149.0,293.0,-0.5405878875770334,1.0,474.0,-0.6844166539067588,1
234,Pilot,d10012021,eoRdQ,reward_learning,2.0,42.0,52.0,1.0,141.0,304.0,-0.4923773640332999,1.0,465.0,-0.7320113053171109,1
235,Pilot,d10012021,eoRdQ,reward_learning,2.0,43.0,21.0,1.0,157.0,413.0,-0.014654903463578,1.0,467.0,-0.7214347161148105,1
236,Pilot,d10012021,eoRdQ,reward_learning,2.0,44.0,39.0,1.0,148.0,498.0,0.3578809602834527,1.0,473.0,-0.6897049485079091,1
237,Pilot,d10012021,eoRdQ,reward_learning,2.0,45.0,45.0,1.0,155.0,270.0,-0.6413917095321122,1.0,460.0,-0.7584527783228621,1
238,Pilot,d10012021,eoRdQ,reward_learning,2.0,46.0,56.0,-1.0,0.0,284.0,-0.5800328613855424,-1.0,584.0,-0.1027042477802334,1
239,Pilot,d10012021,eoRdQ,reward_learning,2.0,47.0,31.0,-1.0,0.0,391.0,-0.1110759505510448,-1.0,765.0,0.8544770750279582,1
240,Pilot,d10012021,eoRdQ,reward_learning,2.0,48.0,14.0,1.0,159.0,350.0,-0.290769720123142,1.0,426.0,-0.9382547947619698,1
241,Pilot,d10012021,eoRdQ,reward_learning,2.0,49.0,31.0,-1.0,0.0,390.0,-0.1154587254186569,-1.0,665.0,0.3256476149129351,1
242,Pilot,d10012021,eoRdQ,reward_learning,2.0,50.0,33.0,-1.0,0.0,368.0,-0.2118797725061237,-1.0,474.0,-0.6844166539067588,1
243,Pilot,d10012021,eoRdQ,reward_learning,2.0,51.0,55.0,1.0,157.0,345.0,-0.3126835944612027,1.0,416.0,-0.9911377407734722,1
244,Pilot,d10012021,eoRdQ,reward_learning,2.0,52.0,14.0,1.0,159.0,312.0,-0.4573151650924029,1.0,763.0,0.8439004858256577,1
245,Pilot,d10012021,eoRdQ,reward_learning,2.0,53.0,40.0,-1.0,0.0,291.0,-0.5493534373122576,-1.0,595.0,-0.0445330071675809,1
246,Pilot,d10012021,eoRdQ,reward_learning,2.0,54.0,35.0,-1.0,0.0,538.0,0.5331919549879378,-1.0,714.0,0.5847740503692964,1
247,Pilot,d10012021,eoRdQ,reward_learning,2.0,55.0,45.0,1.0,155.0,473.0,0.2483115885931495,1.0,713.0,0.5794857557681462,1
248,Pilot,d10012021,eoRdQ,reward_learning,2.0,56.0,37.0,1.0,150.0,477.0,0.265842688063598,1.0,442.0,-0.8536420811435662,1
249,Pilot,d10012021,eoRdQ,reward_learning,2.0,57.0,37.0,1.0,150.0,376.0,-0.1768175735652267,1.0,450.0,-0.8113357243343643,1
250,Pilot,d10012021,eoRdQ,reward_learning,2.0,58.0,21.0,1.0,157.0,690.0,1.1993737348649811,1.0,443.0,-0.848353786542416,1
251,Pilot,d10012021,eoRdQ,reward_learning,2.0,59.0,56.0,-1.0,0.0,725.0,1.3527708552314055,-1.0,794.0,1.007837618461315,1
252,Pilot,d10012021,eoRdQ,reward_learning,2.0,60.0,48.0,-1.0,0.0,396.0,-0.0891620762129842,-1.0,771.0,0.8862068426348596,1
253,Pilot,d10012021,eoRdQ,reward_learning,2.0,61.0,40.0,-1.0,0.0,658.0,1.059124939101393,-1.0,1042.0,2.319334679546572,1
254,Pilot,d10012021,eoRdQ,reward_learning,2.0,62.0,57.0,1.0,149.0,607.0,0.8356034208531746,1.0,1410.0,4.2654270927698565,1
255,Pilot,d10012021,eoRdQ,reward_learning,2.0,63.0,39.0,1.0,148.0,601.0,0.8093067716475019,1.0,641.0,0.1987285444853296,1
256,Pilot,d10012021,eoRdQ,reward_learning,3.0,64.0,21.0,1.0,157.0,1021.0,2.6500722160445958,1.0,763.0,0.8439004858256577,1
257,Pilot,d10012021,eoRdQ,reward_learning,3.0,65.0,35.0,-1.0,0.0,280.0,-0.597563960855991,-1.0,653.0,0.2621880796991324,1
258,Pilot,d10012021,eoRdQ,reward_learning,3.0,66.0,39.0,1.0,148.0,489.0,0.3184359864749436,1.0,576.0,-0.1450106045894353,1
259,Pilot,d10012021,eoRdQ,reward_learning,3.0,67.0,37.0,1.0,150.0,314.0,-0.4485496153571786,1.0,578.0,-0.1344340153871348,1
260,Pilot,d10012021,eoRdQ,reward_learning,3.0,68.0,45.0,1.0,155.0,256.0,-0.702750557678682,1.0,459.0,-0.7637410729240123,1
261,Pilot,d10012021,eoRdQ,reward_learning,3.0,69.0,48.0,-1.0,0.0,354.0,-0.2732386206526935,-1.0,608.0,0.024214822647372,1
262,Pilot,d10012021,eoRdQ,reward_learning,3.0,70.0,35.0,-1.0,0.0,295.0,-0.5318223378418091,-1.0,554.0,-0.2613530858147403,1
263,Pilot,d10012021,eoRdQ,reward_learning,3.0,71.0,57.0,1.0,149.0,349.0,-0.2951524949907542,1.0,433.0,-0.9012367325539182,1
264,Pilot,d10012021,eoRdQ,reward_learning,3.0,72.0,52.0,1.0,141.0,297.0,-0.5230567881065847,1.0,471.0,-0.7002815377102095,1
265,Pilot,d10012021,eoRdQ,reward_learning,3.0,73.0,55.0,1.0,157.0,310.0,-0.4660807148276271,1.0,390.0,-1.1286334004033782,1
266,Pilot,d10012021,eoRdQ,reward_learning,3.0,74.0,41.0,-1.0,0.0,297.0,-0.5230567881065847,-1.0,570.0,-0.1767403721963367,1
267,Pilot,d10012021,eoRdQ,reward_learning,3.0,75.0,40.0,-1.0,0.0,295.0,-0.5318223378418091,-1.0,588.0,-0.0815510693756325,1
268,Pilot,d10012021,eoRdQ,reward_learning,3.0,76.0,45.0,1.0,155.0,311.0,-0.461697939960015,1.0,474.0,-0.6844166539067588,1
269,Pilot,d10012021,eoRdQ,reward_learning,3.0,77.0,1.0,-1.0,0.0,368.0,-0.2118797725061237,-1.0,578.0,-0.1344340153871348,1
270,Pilot,d10012021,eoRdQ,reward_learning,3.0,78.0,31.0,-1.0,0.0,601.0,0.8093067716475019,-1.0,594.0,-0.0498213017687311,1
271,Pilot,d10012021,eoRdQ,reward_learning,3.0,79.0,41.0,-1.0,0.0,325.0,-0.4003390918134452,-1.0,539.0,-0.3406775048319938,1
272,Pilot,d10012021,eoRdQ,reward_learning,3.0,80.0,31.0,-1.0,0.0,314.0,-0.4485496153571786,-1.0,463.0,-0.7425878945194113,1
273,Pilot,d10012021,eoRdQ,reward_learning,3.0,81.0,52.0,1.0,141.0,417.0,0.0028761960068704,1.0,474.0,-0.6844166539067588,1
274,Pilot,d10012021,eoRdQ,reward_learning,3.0,82.0,55.0,1.0,157.0,331.0,-0.3740424426077725,1.0,394.0,-1.1074802219987772,1
275,Pilot,d10012021,eoRdQ,reward_learning,3.0,83.0,48.0,-1.0,0.0,295.0,-0.5318223378418091,-1.0,466.0,-0.7267230107159607,1
276,Pilot,d10012021,eoRdQ,reward_learning,3.0,84.0,33.0,-1.0,0.0,321.0,-0.4178701912838937,-1.0,672.0,0.3626656771209868,1
277,Pilot,d10012021,eoRdQ,reward_learning,3.0,85.0,1.0,-1.0,0.0,327.0,-0.391573542078221,-1.0,723.0,0.6323687017796485,1
278,Pilot,d10012021,eoRdQ,reward_learning,3.0,86.0,56.0,-1.0,0.0,552.0,0.5945508031345076,-1.0,1475.0,4.609166241844622,1
279,Pilot,d10012021,eoRdQ,reward_learning,3.0,87.0,40.0,-1.0,0.0,304.0,-0.4923773640332999,-1.0,546.0,-0.3036594426239422,1
280,Pilot,d10012021,eoRdQ,reward_learning,3.0,88.0,39.0,1.0,148.0,309.0,-0.4704634896952392,1.0,475.0,-0.6791283593056086,1
281,Pilot,d10012021,eoRdQ,reward_learning,3.0,89.0,57.0,1.0,149.0,312.0,-0.4573151650924029,1.0,434.0,-0.895948437952768,1
282,Pilot,d10012021,eoRdQ,reward_learning,3.0,90.0,37.0,1.0,150.0,307.0,-0.4792290394304635,1.0,404.0,-1.054597275987275,1
283,Pilot,d10012021,eoRdQ,reward_learning,3.0,91.0,21.0,1.0,157.0,319.0,-0.426635741019118,1.0,441.0,-0.8589303757447164,1
284,Pilot,d10012021,eoRdQ,reward_learning,3.0,92.0,14.0,1.0,159.0,305.0,-0.4879945891656878,1.0,474.0,-0.6844166539067588,1
285,Pilot,d10012021,eoRdQ,reward_learning,3.0,93.0,56.0,-1.0,0.0,281.0,-0.5931811859883789,-1.0,588.0,-0.0815510693756325,1
286,Pilot,d10012021,eoRdQ,reward_learning,3.0,94.0,33.0,-1.0,0.0,302.0,-0.5011429137685242,-1.0,691.0,0.4631432745428411,1
287,Pilot,d10012021,eoRdQ,reward_learning,3.0,95.0,14.0,1.0,159.0,262.0,-0.6764539084730092,1.0,418.0,-0.9805611515711716,1
288,Pilot,d10012021,lPMys,reward_learning,1.0,0.0,37.0,-1.0,0.0,1485.0,5.301451673196646,,,,0
289,Pilot,d10012021,lPMys,reward_learning,1.0,1.0,22.0,-1.0,0.0,790.0,1.4620050931250026,-1.0,774.0,2.330749217828488,1
290,Pilot,d10012021,lPMys,reward_learning,1.0,2.0,7.0,1.0,142.0,744.0,1.207883448976376,,,,0
291,Pilot,d10012021,lPMys,reward_learning,1.0,3.0,28.0,-1.0,0.0,829.0,1.6774560522944906,-1.0,836.0,2.9155940659084165,1
292,Pilot,d10012021,lPMys,reward_learning,1.0,4.0,0.0,-1.0,0.0,857.0,1.832138792211046,-1.0,586.0,0.5573487107474137,1
293,Pilot,d10012021,lPMys,reward_learning,1.0,5.0,47.0,1.0,143.0,507.0,-0.1013954567458966,1.0,523.0,-0.036929118753159,1
294,Pilot,d10012021,lPMys,reward_learning,1.0,6.0,57.0,1.0,142.0,569.0,0.2411163244979046,1.0,523.0,-0.036929118753159,1
295,Pilot,d10012021,lPMys,reward_learning,1.0,7.0,31.0,1.0,144.0,645.0,0.6609694756999837,1.0,561.0,0.3215241752313134,1
296,Pilot,d10012021,lPMys,reward_learning,1.0,8.0,55.0,1.0,157.0,506.0,-0.106919840314345,1.0,487.0,-0.3765164498963434,1
297,Pilot,d10012021,lPMys,reward_learning,1.0,9.0,59.0,1.0,154.0,444.0,-0.4494316215581462,1.0,750.0,2.1043576637330315,1
298,Pilot,d10012021,lPMys,reward_learning,1.0,10.0,24.0,1.0,150.0,481.0,-0.2450294295255552,1.0,500.0,-0.2538876914279713,1
299,Pilot,d10012021,lPMys,reward_learning,1.0,11.0,24.0,1.0,150.0,657.0,0.7272620785213645,1.0,473.0,-0.5085781897853596,1
300,Pilot,d10012021,lPMys,reward_learning,1.0,12.0,41.0,-1.0,0.0,668.0,0.788030297774297,-1.0,824.0,2.8023982888606884,1
301,Pilot,d10012021,lPMys,reward_learning,1.0,13.0,13.0,-1.0,0.0,595.0,0.3847502972775632,-1.0,437.0,-0.848165520928544,1
302,Pilot,d10012021,lPMys,reward_learning,1.0,14.0,28.0,-1.0,0.0,494.0,-0.1732124431357259,-1.0,524.0,-0.027496137332515,1
303,Pilot,d10012021,lPMys,reward_learning,1.0,15.0,1.0,1.0,149.0,405.0,-0.6648825807276342,1.0,623.0,0.906369023311242,1
304,Pilot,d10012021,lPMys,reward_learning,1.0,16.0,47.0,1.0,143.0,469.0,-0.311322032346936,1.0,436.0,-0.857598502349188,1
305,Pilot,d10012021,lPMys,reward_learning,1.0,17.0,0.0,-1.0,0.0,393.0,-0.731175183549015,-1.0,636.0,1.0289977817796143,1
306,Pilot,d10012021,lPMys,reward_learning,1.0,18.0,55.0,1.0,157.0,368.0,-0.8692847727602252,1.0,548.0,0.1988954167629412,1
307,Pilot,d10012021,lPMys,reward_learning,1.0,19.0,7.0,1.0,142.0,366.0,-0.880333539897122,1.0,436.0,-0.857598502349188,1
308,Pilot,d10012021,lPMys,reward_learning,1.0,20.0,37.0,-1.0,0.0,408.0,-0.6483094300222889,-1.0,549.0,0.2083283981835852,1
309,Pilot,d10012021,lPMys,reward_learning,1.0,21.0,31.0,1.0,144.0,531.0,0.0311897488968651,1.0,600.0,0.6894104506364299,1
310,Pilot,d10012021,lPMys,reward_learning,1.0,22.0,22.0,-1.0,0.0,496.0,-0.162163675998829,-1.0,499.0,-0.2633206728486152,1
311,Pilot,d10012021,lPMys,reward_learning,1.0,23.0,13.0,-1.0,0.0,516.0,-0.0516760046298609,-1.0,625.0,0.9252349861525302,1
312,Pilot,d10012021,lPMys,reward_learning,1.0,24.0,43.0,-1.0,0.0,497.0,-0.1566392924303806,-1.0,611.0,0.793173246263514,1
313,Pilot,d10012021,lPMys,reward_learning,1.0,25.0,57.0,1.0,142.0,506.0,-0.106919840314345,1.0,711.0,1.736471388327915,1
314,Pilot,d10012021,lPMys,reward_learning,1.0,26.0,59.0,1.0,154.0,490.0,-0.1953099774095195,1.0,524.0,-0.027496137332515,1
315,Pilot,d10012021,lPMys,reward_learning,1.0,27.0,41.0,-1.0,0.0,345.0,-0.9963455948345386,-1.0,562.0,0.3309571566519574,1
316,Pilot,d10012021,lPMys,reward_learning,1.0,28.0,23.0,-1.0,0.0,355.0,-0.9411017591500546,-1.0,524.0,-0.027496137332515,1
317,Pilot,d10012021,lPMys,reward_learning,1.0,29.0,43.0,-1.0,0.0,469.0,-0.311322032346936,-1.0,623.0,0.906369023311242,1
318,Pilot,d10012021,lPMys,reward_learning,1.0,30.0,23.0,-1.0,0.0,494.0,-0.1732124431357259,-1.0,512.0,-0.1406919143802431,1
319,Pilot,d10012021,lPMys,reward_learning,1.0,31.0,1.0,1.0,149.0,545.0,0.1085311188551428,1.0,461.0,-0.6217739668330877,1
320,Pilot,d10012021,lPMys,reward_learning,2.0,32.0,23.0,-1.0,0.0,1383.0,4.737964549214908,-1.0,462.0,-0.6123409854124438,1
321,Pilot,d10012021,lPMys,reward_learning,2.0,33.0,37.0,-1.0,0.0,656.0,0.7217376949529161,-1.0,485.0,-0.3953824127376314,1
322,Pilot,d10012021,lPMys,reward_learning,2.0,34.0,28.0,-1.0,0.0,608.0,0.4565672836673925,-1.0,349.0,-1.678267885945217,1
323,Pilot,d10012021,lPMys,reward_learning,2.0,35.0,57.0,1.0,142.0,580.0,0.3018845437508371,1.0,511.0,-0.1501248958008871,1
324,Pilot,d10012021,lPMys,reward_learning,2.0,36.0,1.0,1.0,149.0,544.0,0.1030067352866944,1.0,547.0,0.1894624353422972,1
325,Pilot,d10012021,lPMys,reward_learning,2.0,37.0,43.0,-1.0,0.0,515.0,-0.0572003881983093,-1.0,524.0,-0.027496137332515,1
326,Pilot,d10012021,lPMys,reward_learning,2.0,38.0,22.0,-1.0,0.0,380.0,-0.8029921699388444,-1.0,461.0,-0.6217739668330877,1
327,Pilot,d10012021,lPMys,reward_learning,2.0,39.0,7.0,1.0,142.0,519.0,-0.0351028539245157,1.0,662.0,1.274255298716359,1
328,Pilot,d10012021,lPMys,reward_learning,2.0,40.0,24.0,1.0,150.0,395.0,-0.7201264164121183,1.0,586.0,0.5573487107474137,1
329,Pilot,d10012021,lPMys,reward_learning,2.0,41.0,1.0,1.0,149.0,355.0,-0.9411017591500546,1.0,439.0,-0.829299558087256,1
330,Pilot,d10012021,lPMys,reward_learning,2.0,42.0,55.0,1.0,157.0,469.0,-0.311322032346936,1.0,436.0,-0.857598502349188,1
331,Pilot,d10012021,lPMys,reward_learning,2.0,43.0,0.0,-1.0,0.0,507.0,-0.1013954567458966,-1.0,423.0,-0.9802272608175602,1
332,Pilot,d10012021,lPMys,reward_learning,2.0,44.0,37.0,-1.0,0.0,413.0,-0.6206875121800469,-1.0,425.0,-0.961361297976272,1
333,Pilot,d10012021,lPMys,reward_learning,2.0,45.0,59.0,1.0,154.0,495.0,-0.1676880595672774,1.0,498.0,-0.2727536542692593,1
334,Pilot,d10012021,lPMys,reward_learning,2.0,46.0,55.0,1.0,157.0,355.0,-0.9411017591500546,1.0,612.0,0.802606227684158,1
335,Pilot,d10012021,lPMys,reward_learning,2.0,47.0,41.0,-1.0,0.0,368.0,-0.8692847727602252,-1.0,486.0,-0.3859494313169874,1
336,Pilot,d10012021,lPMys,reward_learning,2.0,48.0,13.0,-1.0,0.0,679.0,0.8487985170272294,-1.0,385.0,-1.3386805548020326,1
337,Pilot,d10012021,lPMys,reward_learning,2.0,49.0,22.0,-1.0,0.0,616.0,0.5007623522149798,-1.0,424.0,-0.970794279396916,1
338,Pilot,d10012021,lPMys,reward_learning,2.0,50.0,47.0,1.0,143.0,419.0,-0.5875412107693564,1.0,475.0,-0.4897122269440715,1
339,Pilot,d10012021,lPMys,reward_learning,2.0,51.0,28.0,-1.0,0.0,479.0,-0.256078196662452,-1.0,537.0,0.0951326211358571,1
340,Pilot,d10012021,lPMys,reward_learning,2.0,52.0,59.0,1.0,154.0,582.0,0.3129333108877339,1.0,525.0,-0.0180631559118709,1
341,Pilot,d10012021,lPMys,reward_learning,2.0,53.0,7.0,1.0,142.0,481.0,-0.2450294295255552,1.0,334.0,-1.8197626072548767,1
342,Pilot,d10012021,lPMys,reward_learning,2.0,54.0,41.0,-1.0,0.0,427.0,-0.5433461422217691,-1.0,474.0,-0.4991452083647155,1
343,Pilot,d10012021,lPMys,reward_learning,2.0,55.0,24.0,1.0,150.0,843.0,1.7547974222527682,1.0,424.0,-0.970794279396916,1
344,Pilot,d10012021,lPMys,reward_learning,2.0,56.0,13.0,-1.0,0.0,493.0,-0.1787368267041743,-1.0,336.0,-1.8008966444135892,1
345,Pilot,d10012021,lPMys,reward_learning,2.0,57.0,47.0,1.0,143.0,431.0,-0.5212486079479756,1.0,414.0,-1.0651240936033564,1
346,Pilot,d10012021,lPMys,reward_learning,2.0,58.0,31.0,1.0,144.0,445.0,-0.4439072379896978,1.0,624.0,0.915802004731886,1
347,Pilot,d10012021,lPMys,reward_learning,2.0,59.0,0.0,-1.0,0.0,459.0,-0.3665658680314201,-1.0,561.0,0.3215241752313134,1
348,Pilot,d10012021,lPMys,reward_learning,2.0,60.0,43.0,-1.0,0.0,367.0,-0.8748091563286736,-1.0,475.0,-0.4897122269440715,1
349,Pilot,d10012021,lPMys,reward_learning,2.0,61.0,57.0,1.0,142.0,496.0,-0.162163675998829,1.0,424.0,-0.970794279396916,1
350,Pilot,d10012021,lPMys,reward_learning,2.0,62.0,31.0,1.0,144.0,407.0,-0.6538338135907373,1.0,437.0,-0.848165520928544,1
351,Pilot,d10012021,lPMys,reward_learning,2.0,63.0,23.0,-1.0,0.0,456.0,-0.3831390187367653,-1.0,499.0,-0.2633206728486152,1
352,Pilot,d10012021,lPMys,reward_learning,3.0,64.0,1.0,1.0,149.0,910.0,2.124931121338812,1.0,673.0,1.3780180943434428,1
353,Pilot,d10012021,lPMys,reward_learning,3.0,65.0,24.0,1.0,150.0,532.0,0.0367141324653135,1.0,411.0,-1.0934230378652885,1
354,Pilot,d10012021,lPMys,reward_learning,3.0,66.0,41.0,-1.0,0.0,393.0,-0.731175183549015,-1.0,474.0,-0.4991452083647155,1
355,Pilot,d10012021,lPMys,reward_learning,3.0,67.0,47.0,1.0,143.0,329.0,-1.084735731929713,1.0,525.0,-0.0180631559118709,1
356,Pilot,d10012021,lPMys,reward_learning,3.0,68.0,37.0,-1.0,0.0,520.0,-0.0295784703560673,-1.0,423.0,-0.9802272608175602,1
357,Pilot,d10012021,lPMys,reward_learning,3.0,69.0,43.0,-1.0,0.0,506.0,-0.106919840314345,-1.0,485.0,-0.3953824127376314,1
358,Pilot,d10012021,lPMys,reward_learning,3.0,70.0,7.0,1.0,142.0,397.0,-0.7090776492752214,1.0,549.0,0.2083283981835852,1
359,Pilot,d10012021,lPMys,reward_learning,3.0,71.0,31.0,1.0,144.0,354.0,-0.9466261427185028,1.0,560.0,0.3120911938106694,1
360,Pilot,d10012021,lPMys,reward_learning,3.0,72.0,28.0,-1.0,0.0,393.0,-0.731175183549015,-1.0,461.0,-0.6217739668330877,1
361,Pilot,d10012021,lPMys,reward_learning,3.0,73.0,7.0,1.0,142.0,320.0,-1.1344551840457489,1.0,474.0,-0.4991452083647155,1
362,Pilot,d10012021,lPMys,reward_learning,3.0,74.0,59.0,1.0,154.0,618.0,0.5118111193518766,1.0,474.0,-0.4991452083647155,1
363,Pilot,d10012021,lPMys,reward_learning,3.0,75.0,55.0,1.0,157.0,408.0,-0.6483094300222889,1.0,623.0,0.906369023311242,1
364,Pilot,d10012021,lPMys,reward_learning,3.0,76.0,43.0,-1.0,0.0,393.0,-0.731175183549015,-1.0,486.0,-0.3859494313169874,1
365,Pilot,d10012021,lPMys,reward_learning,3.0,77.0,59.0,1.0,154.0,406.0,-0.6593581971591858,1.0,487.0,-0.3765164498963434,1
366,Pilot,d10012021,lPMys,reward_learning,3.0,78.0,0.0,-1.0,0.0,529.0,0.0201409817599683,-1.0,462.0,-0.6123409854124438,1
367,Pilot,d10012021,lPMys,reward_learning,3.0,79.0,22.0,-1.0,0.0,771.0,1.357041805324483,-1.0,873.0,3.264614378472245,1
368,Pilot,d10012021,lPMys,reward_learning,3.0,80.0,13.0,-1.0,0.0,394.0,-0.7256507999805666,-1.0,498.0,-0.2727536542692593,1
369,Pilot,d10012021,lPMys,reward_learning,3.0,81.0,57.0,1.0,142.0,505.0,-0.1124442238827934,1.0,536.0,0.0856996397152131,1
370,Pilot,d10012021,lPMys,reward_learning,3.0,82.0,55.0,1.0,157.0,457.0,-0.3776146351683169,1.0,449.0,-0.7349697438808158,1
371,Pilot,d10012021,lPMys,reward_learning,3.0,83.0,41.0,-1.0,0.0,534.0,0.0477628996022104,-1.0,535.0,0.0762666582945691,1
372,Pilot,d10012021,lPMys,reward_learning,3.0,84.0,23.0,-1.0,0.0,493.0,-0.1787368267041743,-1.0,513.0,-0.1312589329595991,1
373,Pilot,d10012021,lPMys,reward_learning,3.0,85.0,22.0,-1.0,0.0,532.0,0.0367141324653135,-1.0,498.0,-0.2727536542692593,1
374,Pilot,d10012021,lPMys,reward_learning,3.0,86.0,37.0,-1.0,0.0,506.0,-0.106919840314345,-1.0,737.0,1.9817289052646596,1
375,Pilot,d10012021,lPMys,reward_learning,3.0,87.0,31.0,1.0,144.0,607.0,0.4510429000989441,1.0,350.0,-1.668834904524573,1
376,Pilot,d10012021,lPMys,reward_learning,3.0,88.0,47.0,1.0,143.0,508.0,-0.0958710731774482,1.0,599.0,0.6799774692157858,1
377,Pilot,d10012021,lPMys,reward_learning,3.0,89.0,13.0,-1.0,0.0,495.0,-0.1676880595672774,-1.0,411.0,-1.0934230378652885,1
378,Pilot,d10012021,lPMys,reward_learning,3.0,90.0,28.0,-1.0,0.0,432.0,-0.5157242243795271,-1.0,612.0,0.802606227684158,1
379,Pilot,d10012021,lPMys,reward_learning,3.0,91.0,23.0,-1.0,0.0,446.0,-0.4383828544212494,-1.0,424.0,-0.970794279396916,1
380,Pilot,d10012021,lPMys,reward_learning,3.0,92.0,0.0,-1.0,0.0,619.0,0.517335502920325,-1.0,598.0,0.6705444877951419,1
381,Pilot,d10012021,lPMys,reward_learning,3.0,93.0,1.0,1.0,149.0,656.0,0.7217376949529161,1.0,637.0,1.0384307632002585,1
382,Pilot,d10012021,lPMys,reward_learning,3.0,94.0,24.0,1.0,150.0,433.0,-0.5101998408110787,1.0,624.0,0.915802004731886,1
383,Pilot,d10012021,lPMys,reward_learning,3.0,95.0,57.0,1.0,142.0,492.0,-0.1842612102726227,1.0,537.0,0.0951326211358571,1
384,Pilot,d09302021,d1IcC,reward_learning,1.0,0.0,5.0,1.0,160.0,905.0,0.5125693458641218,1.0,1139.0,1.7283209961208368,1
385,Pilot,d09302021,d1IcC,reward_learning,1.0,1.0,44.0,1.0,159.0,915.0,0.5392454041981539,1.0,730.0,0.1723916100162232,1
386,Pilot,d09302021,d1IcC,reward_learning,1.0,2.0,46.0,1.0,141.0,833.0,0.3205017258590904,1.0,722.0,0.1419577833931501,1
387,Pilot,d09302021,d1IcC,reward_learning,1.0,3.0,12.0,1.0,144.0,539.0,-0.4637743891614544,1.0,890.0,0.7810681424776857,1
388,Pilot,d09302021,d1IcC,reward_learning,1.0,4.0,10.0,-1.0,0.0,539.0,-0.4637743891614544,-1.0,1025.0,1.2946389667420446,1
389,Pilot,d09302021,d1IcC,reward_learning,1.0,5.0,13.0,-1.0,0.0,1160.0,1.192808833381941,-1.0,626.0,-0.2232481360837273,1
390,Pilot,d09302021,d1IcC,reward_learning,1.0,6.0,19.0,1.0,150.0,818.0,0.2804876383580422,1.0,638.0,-0.1775973961491176,1
391,Pilot,d09302021,d1IcC,reward_learning,1.0,7.0,33.0,-1.0,0.0,619.0,-0.2503659224891973,-1.0,626.0,-0.2232481360837273,1
392,Pilot,d09302021,d1IcC,reward_learning,1.0,8.0,10.0,-1.0,0.0,643.0,-0.1863433824875202,-1.0,942.0,0.978888015527661,1
393,Pilot,d09302021,d1IcC,reward_learning,1.0,9.0,29.0,-1.0,0.0,868.0,0.4138679300282029,-1.0,1548.0,3.28425038222545,1
394,Pilot,d09302021,d1IcC,reward_learning,1.0,10.0,13.0,-1.0,0.0,821.0,0.2884904558582518,-1.0,626.0,-0.2232481360837273,1
395,Pilot,d09302021,d1IcC,reward_learning,1.0,11.0,22.0,1.0,155.0,673.0,-0.1063152074854238,1.0,737.0,0.1990212083114122,1
396,Pilot,d09302021,d1IcC,reward_learning,1.0,12.0,44.0,1.0,159.0,1183.0,1.2541637675502153,1.0,494.0,-0.7254062753644339,1
397,Pilot,d09302021,d1IcC,reward_learning,1.0,13.0,46.0,1.0,141.0,649.0,-0.1703377474871009,1.0,416.0,-1.0221360849393968,1
398,Pilot,d09302021,d1IcC,reward_learning,1.0,14.0,25.0,-1.0,0.0,776.0,0.1684481933551072,-1.0,582.0,-0.3906341825106295,1
399,Pilot,d09302021,d1IcC,reward_learning,1.0,15.0,19.0,1.0,150.0,959.0,0.6566200608678954,1.0,611.0,-0.2803115610019894,1
400,Pilot,d09302021,d1IcC,reward_learning,1.0,16.0,54.0,-1.0,0.0,827.0,0.3044960908586711,-1.0,622.0,-0.2384650493952639,1
401,Pilot,d09302021,d1IcC,reward_learning,1.0,17.0,29.0,-1.0,0.0,1054.0,0.9100426150412008,-1.0,587.0,-0.3716130408712088,1
402,Pilot,d09302021,d1IcC,reward_learning,1.0,18.0,27.0,-1.0,0.0,1403.0,1.8410370508989224,-1.0,545.0,-0.5313906306423427,1
403,Pilot,d09302021,d1IcC,reward_learning,1.0,19.0,3.0,1.0,149.0,1131.0,1.1154482642132482,1.0,1220.0,2.036463490679452,1
404,Pilot,d09302021,d1IcC,reward_learning,1.0,20.0,3.0,1.0,149.0,950.0,0.6326116083672664,1.0,574.0,-0.4210680091337027,1
405,Pilot,d09302021,d1IcC,reward_learning,1.0,21.0,23.0,-1.0,0.0,591.0,-0.3250588858244873,-1.0,544.0,-0.5351948589702269,1
406,Pilot,d09302021,d1IcC,reward_learning,1.0,22.0,27.0,-1.0,0.0,610.0,-0.2743743749898263,-1.0,530.0,-0.5884540555606048,1
407,Pilot,d09302021,d1IcC,reward_learning,1.0,23.0,45.0,1.0,158.0,1037.0,0.8646933158733461,1.0,551.0,-0.5085652606750379,1
408,Pilot,d09302021,d1IcC,reward_learning,1.0,24.0,45.0,1.0,158.0,1104.0,1.0434229067113614,1.0,422.0,-0.999310714972092,1
409,Pilot,d09302021,d1IcC,reward_learning,1.0,25.0,54.0,-1.0,0.0,806.0,0.2484763683572036,-1.0,425.0,-0.9878980299884396,1
410,Pilot,d09302021,d1IcC,reward_learning,1.0,26.0,22.0,1.0,155.0,148.0,-1.506808270022111,1.0,715.0,0.1153281850979611,1
411,Pilot,d09302021,d1IcC,reward_learning,1.0,27.0,5.0,1.0,160.0,1068.0,0.9473890967088456,1.0,732.0,0.1800000666719915,1
412,Pilot,d09302021,d1IcC,reward_learning,1.0,28.0,23.0,-1.0,0.0,767.0,0.1444397408544782,-1.0,1152.0,1.7777759643833304,1
413,Pilot,d09302021,d1IcC,reward_learning,1.0,29.0,25.0,-1.0,0.0,1318.0,1.6142905550596491,-1.0,638.0,-0.1775973961491176,1
414,Pilot,d09302021,d1IcC,reward_learning,1.0,30.0,33.0,-1.0,0.0,830.0,0.3124989083588808,-1.0,577.0,-0.4096553241500502,1
415,Pilot,d09302021,d1IcC,reward_learning,1.0,31.0,12.0,1.0,144.0,668.0,-0.1196532366524398,1.0,627.0,-0.2194439077558432,1
416,Pilot,d09302021,d1IcC,reward_learning,2.0,32.0,25.0,-1.0,0.0,1442.0,1.945073678401648,-1.0,1115.0,1.6370195162516172,1
417,Pilot,d09302021,d1IcC,reward_learning,2.0,33.0,10.0,-1.0,0.0,864.0,0.40319750669459,-1.0,724.0,0.1495662400489184,1
418,Pilot,d09302021,d1IcC,reward_learning,2.0,34.0,5.0,1.0,160.0,488.0,-0.5998222866650184,1.0,644.0,-0.1547720261818128,1
419,Pilot,d09302021,d1IcC,reward_learning,2.0,35.0,22.0,1.0,155.0,99.0,-1.6375209558588686,1.0,1084.0,1.519088438087209,1
420,Pilot,d09302021,d1IcC,reward_learning,2.0,36.0,19.0,1.0,150.0,514.0,-0.5304645349965348,1.0,613.0,-0.2727031043462212,1
421,Pilot,d09302021,d1IcC,reward_learning,2.0,37.0,3.0,1.0,149.0,1016.0,0.8086735933718785,1.0,516.0,-0.6417132521509828,1
422,Pilot,d09302021,d1IcC,reward_learning,2.0,38.0,10.0,-1.0,0.0,568.0,-0.3864138199927612,-1.0,779.0,0.3587987980825461,1
423,Pilot,d09302021,d1IcC,reward_learning,2.0,39.0,46.0,1.0,141.0,525.0,-0.5011208708290995,1.0,644.0,-0.1547720261818128,1
424,Pilot,d09302021,d1IcC,reward_learning,2.0,40.0,54.0,-1.0,0.0,617.0,-0.2557011341560038,-1.0,464.0,-0.8395331252009581,1
425,Pilot,d09302021,d1IcC,reward_learning,2.0,41.0,13.0,-1.0,0.0,574.0,-0.370408184992342,-1.0,896.0,0.8038935124449905,1
426,Pilot,d09302021,d1IcC,reward_learning,2.0,42.0,5.0,1.0,160.0,717.0,0.0110594491843175,1.0,433.0,-0.9574642033653664,1
427,Pilot,d09302021,d1IcC,reward_learning,2.0,43.0,44.0,1.0,159.0,597.0,-0.3090532508240681,1.0,492.0,-0.7330147320202022,1
428,Pilot,d09302021,d1IcC,reward_learning,2.0,44.0,19.0,1.0,150.0,418.0,-0.7865546950032434,1.0,532.0,-0.5808455989048366,1
429,Pilot,d09302021,d1IcC,reward_learning,2.0,45.0,29.0,-1.0,0.0,682.0,-0.0823067549847949,-1.0,522.0,-0.618887882183678,1
430,Pilot,d09302021,d1IcC,reward_learning,2.0,46.0,13.0,-1.0,0.0,533.0,-0.4797800241618737,-1.0,604.0,-0.3069411592971784,1
431,Pilot,d09302021,d1IcC,reward_learning,2.0,47.0,3.0,1.0,149.0,368.0,-0.919934986673404,1.0,719.0,0.1305450984094976,1
432,Pilot,d09302021,d1IcC,reward_learning,2.0,48.0,22.0,1.0,155.0,319.0,-1.0506476725101614,1.0,1031.0,1.3174643367093497,1
433,Pilot,d09302021,d1IcC,reward_learning,2.0,49.0,46.0,1.0,141.0,449.0,-0.7038589141677437,1.0,576.0,-0.4134595524779343,1
434,Pilot,d09302021,d1IcC,reward_learning,2.0,50.0,33.0,-1.0,0.0,777.0,0.1711157991885104,-1.0,861.0,0.6707455209690456,1
435,Pilot,d09302021,d1IcC,reward_learning,2.0,51.0,23.0,-1.0,0.0,982.0,0.7179749950361692,-1.0,1064.0,1.443003871529526,1
436,Pilot,d09302021,d1IcC,reward_learning,2.0,52.0,27.0,-1.0,0.0,2728.0,5.375614780158181,-1.0,710.0,0.0963070434585404,1
437,Pilot,d09302021,d1IcC,reward_learning,2.0,53.0,45.0,1.0,158.0,76.0,-1.6988758900271426,1.0,1231.0,2.0783100022861776,1
438,Pilot,d09302021,d1IcC,reward_learning,2.0,54.0,44.0,1.0,159.0,1585.0,2.3265413125783074,1.0,793.0,0.4120579946729241,1
439,Pilot,d09302021,d1IcC,reward_learning,2.0,55.0,25.0,-1.0,0.0,805.0,0.2458087625238004,-1.0,712.0,0.1039155001143087,1
440,Pilot,d09302021,d1IcC,reward_learning,2.0,56.0,29.0,-1.0,0.0,960.0,0.6592876667012986,,,,0
441,Pilot,d09302021,d1IcC,reward_learning,2.0,57.0,23.0,-1.0,0.0,1016.0,0.8086735933718785,-1.0,492.0,-0.7330147320202022,1
442,Pilot,d09302021,d1IcC,reward_learning,2.0,58.0,33.0,-1.0,0.0,629.0,-0.2236898641551652,-1.0,409.0,-1.0487656832345855,1
443,Pilot,d09302021,d1IcC,reward_learning,2.0,59.0,27.0,-1.0,0.0,489.0,-0.5971546808316152,-1.0,434.0,-0.9536599750374825,1
444,Pilot,d09302021,d1IcC,reward_learning,2.0,60.0,54.0,-1.0,0.0,514.0,-0.5304645349965348,-1.0,671.0,-0.052057861328941,1
445,Pilot,d09302021,d1IcC,reward_learning,2.0,61.0,12.0,1.0,144.0,681.0,-0.0849743608181981,1.0,628.0,-0.215639679427959,1
446,Pilot,d09302021,d1IcC,reward_learning,2.0,62.0,45.0,1.0,158.0,592.0,-0.3223912799910841,1.0,438.0,-0.9384430617259458,1
447,Pilot,d09302021,d1IcC,reward_learning,2.0,63.0,12.0,1.0,144.0,359.0,-0.943943439174033,1.0,597.0,-0.3335707575923674,1
448,Pilot,d09302021,d1IcC,reward_learning,3.0,64.0,54.0,-1.0,0.0,1450.0,1.9664145250688732,-1.0,541.0,-0.5466075439538793,1
449,Pilot,d09302021,d1IcC,reward_learning,3.0,65.0,5.0,1.0,160.0,710.0,-0.0076137916495049,1.0,595.0,-0.3411792142481357,1
450,Pilot,d09302021,d1IcC,reward_learning,3.0,66.0,45.0,1.0,158.0,803.0,0.2404735508569939,1.0,422.0,-0.999310714972092,1
451,Pilot,d09302021,d1IcC,reward_learning,3.0,67.0,46.0,1.0,141.0,525.0,-0.5011208708290995,1.0,607.0,-0.295528474313526,1
452,Pilot,d09302021,d1IcC,reward_learning,3.0,68.0,25.0,-1.0,0.0,900.0,0.4992313166971057,-1.0,580.0,-0.3982426391663978,1
453,Pilot,d09302021,d1IcC,reward_learning,3.0,69.0,27.0,-1.0,0.0,697.0,-0.0422926674837466,-1.0,329.0,-1.353103949465317,1
454,Pilot,d09302021,d1IcC,reward_learning,3.0,70.0,45.0,1.0,158.0,1468.0,2.014431430070131,1.0,1584.0,3.4212026020292794,1
455,Pilot,d09302021,d1IcC,reward_learning,3.0,71.0,3.0,1.0,149.0,537.0,-0.4691096008282609,1.0,279.0,-1.543315365859524,1
456,Pilot,d09302021,d1IcC,reward_learning,3.0,72.0,23.0,-1.0,0.0,847.0,0.3578482075267354,-1.0,723.0,0.1457620117210342,1
457,Pilot,d09302021,d1IcC,reward_learning,3.0,73.0,3.0,1.0,149.0,600.0,-0.3010504333238584,1.0,787.0,0.3892326247056192,1
458,Pilot,d09302021,d1IcC,reward_learning,3.0,74.0,54.0,-1.0,0.0,246.0,-1.2453828983485962,-1.0,583.0,-0.3868299541827454,1
459,Pilot,d09302021,d1IcC,reward_learning,3.0,75.0,13.0,-1.0,0.0,478.0,-0.6264983449990505,-1.0,509.0,-0.6683428504461718,1
460,Pilot,d09302021,d1IcC,reward_learning,3.0,76.0,44.0,1.0,159.0,510.0,-0.5411349583301477,1.0,440.0,-0.9308346050701776,1
461,Pilot,d09302021,d1IcC,reward_learning,3.0,77.0,10.0,-1.0,0.0,158.0,-1.4801322116880788,-1.0,645.0,-0.1509677978539287,1
462,Pilot,d09302021,d1IcC,reward_learning,3.0,78.0,12.0,1.0,144.0,490.0,-0.594487074998212,1.0,507.0,-0.6759513071019401,1
463,Pilot,d09302021,d1IcC,reward_learning,3.0,79.0,33.0,-1.0,0.0,466.0,-0.6585096149998891,-1.0,984.0,1.138665605298795,1
464,Pilot,d09302021,d1IcC,reward_learning,3.0,80.0,25.0,-1.0,0.0,60.0,-1.741557583361594,-1.0,625.0,-0.2270523644116115,1
465,Pilot,d09302021,d1IcC,reward_learning,3.0,81.0,5.0,1.0,160.0,573.0,-0.3730757908257452,1.0,940.0,0.9712795588718928,1
466,Pilot,d09302021,d1IcC,reward_learning,3.0,82.0,19.0,1.0,150.0,378.0,-0.8932589283393719,1.0,899.0,0.815306197428643,1
467,Pilot,d09302021,d1IcC,reward_learning,3.0,83.0,22.0,1.0,155.0,588.0,-0.333061703324697,1.0,399.0,-1.0868079665134271,1
468,Pilot,d09302021,d1IcC,reward_learning,3.0,84.0,23.0,-1.0,0.0,491.0,-0.5918194691648088,-1.0,513.0,-0.6531259371346353,1
469,Pilot,d09302021,d1IcC,reward_learning,3.0,85.0,13.0,-1.0,0.0,622.0,-0.2423631049889877,-1.0,514.0,-0.6493217088067511,1
470,Pilot,d09302021,d1IcC,reward_learning,3.0,86.0,10.0,-1.0,0.0,588.0,-0.333061703324697,-1.0,774.0,0.3397776564431254,1
471,Pilot,d09302021,d1IcC,reward_learning,3.0,87.0,12.0,1.0,144.0,524.0,-0.5037884766625027,1.0,1670.0,3.748366238227315,1
472,Pilot,d09302021,d1IcC,reward_learning,3.0,88.0,33.0,-1.0,0.0,482.0,-0.6158279216654376,-1.0,560.0,-0.4743272057240806,1
473,Pilot,d09302021,d1IcC,reward_learning,3.0,89.0,19.0,1.0,150.0,290.0,-1.1280082416788548,1.0,512.0,-0.6569301654625194,1
474,Pilot,d09302021,d1IcC,reward_learning,3.0,90.0,22.0,1.0,155.0,420.0,-0.7812194833364369,1.0,521.0,-0.6226921105115621,1
475,Pilot,d09302021,d1IcC,reward_learning,3.0,91.0,29.0,-1.0,0.0,419.0,-0.7838870891698402,-1.0,674.0,-0.0406451763452886,1
476,Pilot,d09302021,d1IcC,reward_learning,3.0,92.0,27.0,-1.0,0.0,553.0,-0.4264279074938095,-1.0,625.0,-0.2270523644116115,1
477,Pilot,d09302021,d1IcC,reward_learning,3.0,93.0,29.0,-1.0,0.0,371.0,-0.9119321691731944,-1.0,492.0,-0.7330147320202022,1
478,Pilot,d09302021,d1IcC,reward_learning,3.0,94.0,44.0,1.0,159.0,509.0,-0.5438025641635509,1.0,381.0,-1.1552840764153418,1
479,Pilot,d09302021,d1IcC,reward_learning,3.0,95.0,46.0,1.0,141.0,486.0,-0.6051574983318249,1.0,590.0,-0.3602003558875564,1
480,Pilot,d10012021,BAWYi,reward_learning,1.0,0.0,23.0,1.0,151.0,869.0,1.6528193002469789,1.0,1255.0,3.246081609548376,1
481,Pilot,d10012021,BAWYi,reward_learning,1.0,1.0,59.0,-1.0,0.0,938.0,2.13450679397024,-1.0,1079.0,2.353118488823378,1
482,Pilot,d10012021,BAWYi,reward_learning,1.0,2.0,59.0,-1.0,0.0,1190.0,3.893713292785626,-1.0,927.0,1.581923066379062,1
483,Pilot,d10012021,BAWYi,reward_learning,1.0,3.0,22.0,1.0,150.0,842.0,1.464332889659616,1.0,1015.0,2.028404626741561,1
484,Pilot,d10012021,BAWYi,reward_learning,1.0,4.0,49.0,1.0,155.0,852.0,1.5341426713586392,1.0,1079.0,2.353118488823378,1
485,Pilot,d10012021,BAWYi,reward_learning,1.0,5.0,23.0,1.0,151.0,922.0,2.0228111432518023,1.0,1375.0,3.854920100951784,1
486,Pilot,d10012021,BAWYi,reward_learning,1.0,6.0,0.0,-1.0,0.0,844.0,1.4782948459994207,-1.0,934.0,1.6174386450442606,1
487,Pilot,d10012021,BAWYi,reward_learning,1.0,7.0,31.0,1.0,142.0,811.0,1.247922566392644,1.0,903.0,1.4601553680983803,1
488,Pilot,d10012021,BAWYi,reward_learning,1.0,8.0,4.0,1.0,144.0,898.0,1.8552676671741464,1.0,871.0,1.2977984370574718,1
489,Pilot,d10012021,BAWYi,reward_learning,1.0,9.0,37.0,1.0,141.0,762.0,0.9058546360674298,1.0,839.0,1.135441506016563,1
490,Pilot,d10012021,BAWYi,reward_learning,1.0,10.0,22.0,1.0,150.0,898.0,1.8552676671741464,1.0,839.0,1.135441506016563,1
491,Pilot,d10012021,BAWYi,reward_learning,1.0,11.0,14.0,-1.0,0.0,787.0,1.080379090314988,-1.0,783.0,0.8513168766949728,1
492,Pilot,d10012021,BAWYi,reward_learning,1.0,12.0,37.0,1.0,141.0,867.0,1.638857343907174,1.0,1023.0,2.068993859501788,1
493,Pilot,d10012021,BAWYi,reward_learning,1.0,13.0,3.0,-1.0,0.0,842.0,1.464332889659616,-1.0,727.0,0.5671922473733826,1
494,Pilot,d10012021,BAWYi,reward_learning,1.0,14.0,39.0,1.0,156.0,643.0,0.0751182338490529,1.0,847.0,1.17603073877679,1
495,Pilot,d10012021,BAWYi,reward_learning,1.0,15.0,33.0,1.0,149.0,747.0,0.8011399635188949,1.0,775.0,0.8107276439347456,1
496,Pilot,d10012021,BAWYi,reward_learning,1.0,16.0,53.0,-1.0,0.0,707.0,0.5219008367228019,-1.0,663.0,0.2424783852915652,1
497,Pilot,d10012021,BAWYi,reward_learning,1.0,17.0,0.0,-1.0,0.0,731.0,0.6894443128004577,-1.0,655.0,0.201889152531338,1
498,Pilot,d10012021,BAWYi,reward_learning,1.0,18.0,49.0,1.0,155.0,739.0,0.7452921381596763,1.0,759.0,0.7295491784142913,1
499,Pilot,d10012021,BAWYi,reward_learning,1.0,19.0,31.0,1.0,142.0,730.0,0.6824633346305553,1.0,607.0,-0.0416462440300249,1
500,Pilot,d10012021,BAWYi,reward_learning,1.0,20.0,32.0,-1.0,0.0,610.0,-0.1552540457577239,-1.0,671.0,0.2830676180517924,1
501,Pilot,d10012021,BAWYi,reward_learning,1.0,21.0,4.0,1.0,144.0,619.0,-0.0924252422286029,1.0,591.0,-0.1228247095504792,1
502,Pilot,d10012021,BAWYi,reward_learning,1.0,22.0,32.0,-1.0,0.0,602.0,-0.2111018711169425,-1.0,647.0,0.1612999197711109,1
503,Pilot,d10012021,BAWYi,reward_learning,1.0,23.0,13.0,-1.0,0.0,642.0,0.0681372556791505,-1.0,695.0,0.4048353163324739,1
504,Pilot,d10012021,BAWYi,reward_learning,1.0,24.0,33.0,1.0,149.0,634.0,0.0122894303199319,1.0,575.0,-0.2040031750709336,1
505,Pilot,d10012021,BAWYi,reward_learning,1.0,25.0,13.0,-1.0,0.0,426.0,-1.439754029019752,-1.0,631.0,0.0801214542506565,1
506,Pilot,d10012021,BAWYi,reward_learning,1.0,26.0,39.0,1.0,156.0,610.0,-0.1552540457577239,1.0,519.0,-0.4881278043925238,1
507,Pilot,d10012021,BAWYi,reward_learning,1.0,27.0,3.0,-1.0,0.0,644.0,0.0820992120189552,-1.0,575.0,-0.2040031750709336,1
508,Pilot,d10012021,BAWYi,reward_learning,1.0,28.0,53.0,-1.0,0.0,619.0,-0.0924252422286029,-1.0,647.0,0.1612999197711109,1
509,Pilot,d10012021,BAWYi,reward_learning,1.0,29.0,16.0,-1.0,0.0,715.0,0.5777486620820205,-1.0,671.0,0.2830676180517924,1
510,Pilot,d10012021,BAWYi,reward_learning,1.0,30.0,14.0,-1.0,0.0,739.0,0.7452921381596763,-1.0,655.0,0.201889152531338,1
511,Pilot,d10012021,BAWYi,reward_learning,1.0,31.0,16.0,-1.0,0.0,578.0,-0.3786453471945983,-1.0,511.0,-0.528717037152751,1
512,Pilot,d10012021,BAWYi,reward_learning,2.0,32.0,39.0,1.0,156.0,613.0,-0.1343111112480169,1.0,703.0,0.4454245490927011,1
513,Pilot,d10012021,BAWYi,reward_learning,2.0,33.0,13.0,-1.0,0.0,627.0,-0.0365774168693843,-1.0,606.0,-0.0467198981250533,1
514,Pilot,d10012021,BAWYi,reward_learning,2.0,34.0,22.0,1.0,150.0,633.0,0.0053084521500296,1.0,606.0,-0.0467198981250533,1
515,Pilot,d10012021,BAWYi,reward_learning,2.0,35.0,4.0,1.0,144.0,554.0,-0.5461888232722542,1.0,582.0,-0.1684875964057348,1
516,Pilot,d10012021,BAWYi,reward_learning,2.0,36.0,0.0,-1.0,0.0,442.0,-1.328058378301315,-1.0,495.0,-0.6098955026732054,1
517,Pilot,d10012021,BAWYi,reward_learning,2.0,37.0,33.0,1.0,149.0,604.0,-0.1971399147771378,1.0,407.0,-1.0563770630357043,1
518,Pilot,d10012021,BAWYi,reward_learning,2.0,38.0,32.0,-1.0,0.0,532.0,-0.6997703430101054,-1.0,519.0,-0.4881278043925238,1
519,Pilot,d10012021,BAWYi,reward_learning,2.0,39.0,59.0,-1.0,0.0,563.0,-0.4833600197431332,-1.0,679.0,0.3236568508120196,1
520,Pilot,d10012021,BAWYi,reward_learning,2.0,40.0,31.0,1.0,142.0,538.0,-0.6578844739906914,1.0,463.0,-0.772252433714114,1
521,Pilot,d10012021,BAWYi,reward_learning,2.0,41.0,23.0,1.0,151.0,419.0,-1.4886208762090682,1.0,559.0,-0.2851816405913879,1
522,Pilot,d10012021,BAWYi,reward_learning,2.0,42.0,0.0,-1.0,0.0,683.0,0.354357360645146,-1.0,511.0,-0.528717037152751,1
523,Pilot,d10012021,BAWYi,reward_learning,2.0,43.0,3.0,-1.0,0.0,570.0,-0.434493172553817,-1.0,542.0,-0.3714337602068707,1
524,Pilot,d10012021,BAWYi,reward_learning,2.0,44.0,32.0,-1.0,0.0,426.0,-1.439754029019752,-1.0,486.0,-0.6555583895284609,1
525,Pilot,d10012021,BAWYi,reward_learning,2.0,45.0,53.0,-1.0,0.0,402.0,-1.607297505097408,-1.0,479.0,-0.6910739681936597,1
526,Pilot,d10012021,BAWYi,reward_learning,2.0,46.0,49.0,1.0,155.0,531.0,-0.7067513211800077,1.0,511.0,-0.528717037152751,1
527,Pilot,d10012021,BAWYi,reward_learning,2.0,47.0,14.0,-1.0,0.0,500.0,-0.92316164444698,-1.0,535.0,-0.4069493388720694,1
528,Pilot,d10012021,BAWYi,reward_learning,2.0,48.0,16.0,-1.0,0.0,627.0,-0.0365774168693843,-1.0,503.0,-0.5693062699129782,1
529,Pilot,d10012021,BAWYi,reward_learning,2.0,49.0,14.0,-1.0,0.0,641.0,0.0611562775092482,-1.0,495.0,-0.6098955026732054,1
530,Pilot,d10012021,BAWYi,reward_learning,2.0,50.0,22.0,1.0,150.0,491.0,-0.9859904479761008,1.0,726.0,0.5621185932783542,1
531,Pilot,d10012021,BAWYi,reward_learning,2.0,51.0,53.0,-1.0,0.0,738.0,0.7383111599897739,-1.0,615.0,-0.0010570112697977,1
532,Pilot,d10012021,BAWYi,reward_learning,2.0,52.0,31.0,1.0,142.0,635.0,0.0192704084898342,1.0,551.0,-0.3257708733516151,1
533,Pilot,d10012021,BAWYi,reward_learning,2.0,53.0,49.0,1.0,155.0,609.0,-0.1622350239276262,1.0,687.0,0.3642460835722467,1
534,Pilot,d10012021,BAWYi,reward_learning,2.0,54.0,59.0,-1.0,0.0,642.0,0.0681372556791505,-1.0,647.0,0.1612999197711109,1
535,Pilot,d10012021,BAWYi,reward_learning,2.0,55.0,33.0,1.0,149.0,538.0,-0.6578844739906914,1.0,471.0,-0.7316632009538868,1
536,Pilot,d10012021,BAWYi,reward_learning,2.0,56.0,23.0,1.0,151.0,689.0,0.3962432296645599,1.0,639.0,0.1207106870108837,1
537,Pilot,d10012021,BAWYi,reward_learning,2.0,57.0,37.0,1.0,141.0,610.0,-0.1552540457577239,1.0,567.0,-0.2445924078311608,1
538,Pilot,d10012021,BAWYi,reward_learning,2.0,58.0,4.0,1.0,144.0,658.0,0.1798329063975878,1.0,591.0,-0.1228247095504792,1
539,Pilot,d10012021,BAWYi,reward_learning,2.0,59.0,16.0,-1.0,0.0,739.0,0.7452921381596763,-1.0,511.0,-0.528717037152751,1
540,Pilot,d10012021,BAWYi,reward_learning,2.0,60.0,37.0,1.0,141.0,531.0,-0.7067513211800077,1.0,479.0,-0.6910739681936597,1
541,Pilot,d10012021,BAWYi,reward_learning,2.0,61.0,13.0,-1.0,0.0,654.0,0.1519089937179785,-1.0,543.0,-0.3663601061118423,1
542,Pilot,d10012021,BAWYi,reward_learning,2.0,62.0,3.0,-1.0,0.0,611.0,-0.1482730675878215,-1.0,495.0,-0.6098955026732054,1
543,Pilot,d10012021,BAWYi,reward_learning,2.0,63.0,39.0,1.0,156.0,570.0,-0.434493172553817,1.0,487.0,-0.6504847354334325,1
544,Pilot,d10012021,BAWYi,reward_learning,3.0,64.0,4.0,1.0,144.0,509.0,-0.8603328409178589,1.0,679.0,0.3236568508120196,1
545,Pilot,d10012021,BAWYi,reward_learning,3.0,65.0,39.0,1.0,156.0,579.0,-0.371664369024696,1.0,422.0,-0.9802722516102784,1
546,Pilot,d10012021,BAWYi,reward_learning,3.0,66.0,32.0,-1.0,0.0,354.0,-1.94238445725272,-1.0,527.0,-0.4475385716322966,1
547,Pilot,d10012021,BAWYi,reward_learning,3.0,67.0,13.0,-1.0,0.0,595.0,-0.2599687183062588,-1.0,1111.0,2.515475419864287,1
548,Pilot,d10012021,BAWYi,reward_learning,3.0,68.0,31.0,1.0,142.0,505.0,-0.8882567535974683,1.0,415.0,-1.015787830275477,1
549,Pilot,d10012021,BAWYi,reward_learning,3.0,69.0,16.0,-1.0,0.0,410.0,-1.5514496797381894,-1.0,503.0,-0.5693062699129782,1
550,Pilot,d10012021,BAWYi,reward_learning,3.0,70.0,0.0,-1.0,0.0,290.0,-2.3891670601264687,-1.0,551.0,-0.3257708733516151,1
551,Pilot,d10012021,BAWYi,reward_learning,3.0,71.0,22.0,1.0,150.0,482.0,-1.0488192515052217,1.0,399.0,-1.0969662957959314,1
552,Pilot,d10012021,BAWYi,reward_learning,3.0,72.0,49.0,1.0,155.0,539.0,-0.6509034958207891,1.0,383.0,-1.1781447613163858,1
553,Pilot,d10012021,BAWYi,reward_learning,3.0,73.0,33.0,1.0,149.0,714.0,0.5707676839121181,1.0,679.0,0.3236568508120196,1
554,Pilot,d10012021,BAWYi,reward_learning,3.0,74.0,23.0,1.0,151.0,578.0,-0.3786453471945983,1.0,423.0,-0.9751985975152498,1
555,Pilot,d10012021,BAWYi,reward_learning,3.0,75.0,32.0,-1.0,0.0,578.0,-0.3786453471945983,-1.0,543.0,-0.3663601061118423,1
556,Pilot,d10012021,BAWYi,reward_learning,3.0,76.0,59.0,-1.0,0.0,546.0,-0.6020366486314728,-1.0,535.0,-0.4069493388720694,1
557,Pilot,d10012021,BAWYi,reward_learning,3.0,77.0,53.0,-1.0,0.0,627.0,-0.0365774168693843,-1.0,574.0,-0.209076829165962,1
558,Pilot,d10012021,BAWYi,reward_learning,3.0,78.0,14.0,-1.0,0.0,506.0,-0.8812757754275659,-1.0,463.0,-0.772252433714114,1
559,Pilot,d10012021,BAWYi,reward_learning,3.0,79.0,49.0,1.0,155.0,618.0,-0.0994062203985052,1.0,495.0,-0.6098955026732054,1
560,Pilot,d10012021,BAWYi,reward_learning,3.0,80.0,0.0,-1.0,0.0,482.0,-1.0488192515052217,-1.0,511.0,-0.528717037152751,1
561,Pilot,d10012021,BAWYi,reward_learning,3.0,81.0,3.0,-1.0,0.0,563.0,-0.4833600197431332,-1.0,407.0,-1.0563770630357043,1
562,Pilot,d10012021,BAWYi,reward_learning,3.0,82.0,23.0,1.0,151.0,618.0,-0.0994062203985052,1.0,383.0,-1.1781447613163858,1
563,Pilot,d10012021,BAWYi,reward_learning,3.0,83.0,3.0,-1.0,0.0,620.0,-0.0854442640587006,-1.0,471.0,-0.7316632009538868,1
564,Pilot,d10012021,BAWYi,reward_learning,3.0,84.0,37.0,1.0,141.0,627.0,-0.0365774168693843,1.0,439.0,-0.8940201319947956,1
565,Pilot,d10012021,BAWYi,reward_learning,3.0,85.0,37.0,1.0,141.0,449.0,-1.2791915311119986,1.0,335.0,-1.4216801578777487,1
566,Pilot,d10012021,BAWYi,reward_learning,3.0,86.0,13.0,-1.0,0.0,531.0,-0.7067513211800077,-1.0,399.0,-1.0969662957959314,1
567,Pilot,d10012021,BAWYi,reward_learning,3.0,87.0,4.0,1.0,144.0,530.0,-0.71373229934991,1.0,455.0,-0.8128416664743412,1
568,Pilot,d10012021,BAWYi,reward_learning,3.0,88.0,31.0,1.0,142.0,587.0,-0.3158165436654774,1.0,431.0,-0.9346093647550228,1
569,Pilot,d10012021,BAWYi,reward_learning,3.0,89.0,14.0,-1.0,0.0,531.0,-0.7067513211800077,-1.0,510.0,-0.5337906912477794,1
570,Pilot,d10012021,BAWYi,reward_learning,3.0,90.0,16.0,-1.0,0.0,547.0,-0.5950556704615705,-1.0,455.0,-0.8128416664743412,1
571,Pilot,d10012021,BAWYi,reward_learning,3.0,91.0,53.0,-1.0,0.0,842.0,1.464332889659616,-1.0,582.0,-0.1684875964057348,1
572,Pilot,d10012021,BAWYi,reward_learning,3.0,92.0,59.0,-1.0,0.0,627.0,-0.0365774168693843,-1.0,551.0,-0.3257708733516151,1
573,Pilot,d10012021,BAWYi,reward_learning,3.0,93.0,39.0,1.0,156.0,700.0,0.4730339895334855,1.0,495.0,-0.6098955026732054,1
574,Pilot,d10012021,BAWYi,reward_learning,3.0,94.0,33.0,1.0,149.0,555.0,-0.5392078451023519,1.0,430.0,-0.9396830188500512,1
575,Pilot,d10012021,BAWYi,reward_learning,3.0,95.0,22.0,1.0,150.0,779.0,1.0245312649557694,1.0,471.0,-0.7316632009538868,1
672,Pilot,d10012021,OH30k,reward_learning,1.0,0.0,33.0,1.0,159.0,930.0,0.9180634407212698,1.0,1134.0,3.868509678464061,1
673,Pilot,d10012021,OH30k,reward_learning,1.0,1.0,25.0,-1.0,0.0,703.0,0.4171009382123076,-1.0,814.0,1.855080949092688,1
674,Pilot,d10012021,OH30k,reward_learning,1.0,2.0,5.0,1.0,150.0,527.0,0.0286894825225396,1.0,909.0,2.452817603124814,1
675,Pilot,d10012021,OH30k,reward_learning,1.0,3.0,34.0,1.0,142.0,558.0,0.097102863922442,1.0,686.0,1.0497094573441383,1
676,Pilot,d10012021,OH30k,reward_learning,1.0,4.0,22.0,1.0,140.0,480.0,-0.075034031212796,1.0,653.0,0.8420746196277153,1
677,Pilot,d10012021,OH30k,reward_learning,1.0,5.0,59.0,1.0,140.0,511.0,-0.0066206498128937,1.0,622.0,0.6470237114698636,1
678,Pilot,d10012021,OH30k,reward_learning,1.0,6.0,14.0,-1.0,0.0,640.0,0.2780672921415384,-1.0,654.0,0.848366584407001,1
679,Pilot,d10012021,OH30k,reward_learning,1.0,7.0,54.0,-1.0,0.0,671.0,0.3464806735414407,-1.0,670.0,0.9490380208755697,1
680,Pilot,d10012021,OH30k,reward_learning,1.0,8.0,59.0,1.0,140.0,511.0,-0.0066206498128937,1.0,557.0,0.2380460008163032,1
681,Pilot,d10012021,OH30k,reward_learning,1.0,9.0,50.0,-1.0,0.0,623.0,0.2405502765351404,-1.0,606.0,0.5463522750012949,1
682,Pilot,d10012021,OH30k,reward_learning,1.0,10.0,50.0,-1.0,0.0,363.0,-0.3332393739156532,-1.0,637.0,0.7414031831591467,1
683,Pilot,d10012021,OH30k,reward_learning,1.0,11.0,22.0,1.0,140.0,511.0,-0.0066206498128937,1.0,525.0,0.0367031278791659,1
684,Pilot,d10012021,OH30k,reward_learning,1.0,12.0,43.0,1.0,157.0,335.0,-0.3950321055026617,1.0,574.0,0.3450094020641575,1
685,Pilot,d10012021,OH30k,reward_learning,1.0,13.0,17.0,-1.0,0.0,352.0,-0.3575150898962637,-1.0,493.0,-0.1646397450579714,1
686,Pilot,d10012021,OH30k,reward_learning,1.0,14.0,25.0,-1.0,0.0,398.0,-0.2559984594318925,-1.0,494.0,-0.1583477802786859,1
687,Pilot,d10012021,OH30k,reward_learning,1.0,15.0,18.0,-1.0,0.0,417.0,-0.2140676772835653,-1.0,493.0,-0.1646397450579714,1
688,Pilot,d10012021,OH30k,reward_learning,1.0,16.0,14.0,-1.0,0.0,464.0,-0.1103441635482295,-1.0,461.0,-0.3659826179951088,1
689,Pilot,d10012021,OH30k,reward_learning,1.0,17.0,5.0,1.0,150.0,543.0,0.0639996148579731,1.0,478.0,-0.2590192167472546,1
690,Pilot,d10012021,OH30k,reward_learning,1.0,18.0,49.0,-1.0,0.0,574.0,0.1324129962578754,-1.0,462.0,-0.3596906532158233,1
691,Pilot,d10012021,OH30k,reward_learning,1.0,19.0,17.0,-1.0,0.0,462.0,-0.1147579300901587,-1.0,429.0,-0.5673254909322462,1
692,Pilot,d10012021,OH30k,reward_learning,1.0,20.0,33.0,1.0,159.0,526.0,0.026482599251575,1.0,510.0,-0.0576763438101172,1
693,Pilot,d10012021,OH30k,reward_learning,1.0,21.0,18.0,-1.0,0.0,495.0,-0.0419307821483272,-1.0,526.0,0.0429950926584514,1
694,Pilot,d10012021,OH30k,reward_learning,1.0,22.0,43.0,1.0,157.0,577.0,0.1390336460707692,1.0,382.0,-0.8630478355586667,1
695,Pilot,d10012021,OH30k,reward_learning,1.0,23.0,49.0,-1.0,0.0,495.0,-0.0419307821483272,-1.0,413.0,-0.6679969274008148,1
696,Pilot,d10012021,OH30k,reward_learning,1.0,24.0,55.0,1.0,141.0,460.0,-0.1191716966320879,1.0,430.0,-0.5610335261529606,1
697,Pilot,d10012021,OH30k,reward_learning,1.0,25.0,55.0,1.0,141.0,480.0,-0.075034031212796,1.0,510.0,-0.0576763438101172,1
698,Pilot,d10012021,OH30k,reward_learning,1.0,26.0,54.0,-1.0,0.0,622.0,0.2383433932641758,-1.0,413.0,-0.6679969274008148,1
699,Pilot,d10012021,OH30k,reward_learning,1.0,27.0,2.0,-1.0,0.0,415.0,-0.2184814438254945,-1.0,494.0,-0.1583477802786859,1
700,Pilot,d10012021,OH30k,reward_learning,1.0,28.0,2.0,-1.0,0.0,367.0,-0.3244118408317948,-1.0,589.0,0.4393888737534406,1
701,Pilot,d10012021,OH30k,reward_learning,1.0,29.0,44.0,1.0,143.0,510.0,-0.0088275330838583,1.0,413.0,-0.6679969274008148,1
702,Pilot,d10012021,OH30k,reward_learning,1.0,30.0,34.0,1.0,142.0,430.0,-0.1853781947610256,1.0,398.0,-0.762376399090098,1
703,Pilot,d10012021,OH30k,reward_learning,1.0,31.0,44.0,1.0,143.0,719.0,0.4524110705477411,1.0,605.0,0.5400603102220093,1
704,Pilot,d10012021,OH30k,reward_learning,2.0,32.0,49.0,-1.0,0.0,1090.0,1.2711647640756043,-1.0,493.0,-0.1646397450579714,1
705,Pilot,d10012021,OH30k,reward_learning,2.0,33.0,14.0,-1.0,0.0,446.0,-0.1500680624255921,-1.0,445.0,-0.4666540544636775,1
706,Pilot,d10012021,OH30k,reward_learning,2.0,34.0,17.0,-1.0,0.0,1023.0,1.1233035849209767,-1.0,750.0,1.452395203218413,1
707,Pilot,d10012021,OH30k,reward_learning,2.0,35.0,2.0,-1.0,0.0,534.0,0.0441376654192918,-1.0,398.0,-0.762376399090098,1
708,Pilot,d10012021,OH30k,reward_learning,2.0,36.0,14.0,-1.0,0.0,423.0,-0.2008263776577777,-1.0,382.0,-0.8630478355586667,1
709,Pilot,d10012021,OH30k,reward_learning,2.0,37.0,44.0,1.0,143.0,335.0,-0.3950321055026617,1.0,637.0,0.7414031831591467,1
710,Pilot,d10012021,OH30k,reward_learning,2.0,38.0,33.0,1.0,159.0,334.0,-0.3972389887736263,1.0,350.0,-1.064390708495804,1
711,Pilot,d10012021,OH30k,reward_learning,2.0,39.0,54.0,-1.0,0.0,480.0,-0.075034031212796,-1.0,414.0,-0.6617049626215293,1
712,Pilot,d10012021,OH30k,reward_learning,2.0,40.0,18.0,-1.0,0.0,415.0,-0.2184814438254945,-1.0,429.0,-0.5673254909322462,1
713,Pilot,d10012021,OH30k,reward_learning,2.0,41.0,25.0,-1.0,0.0,704.0,0.4193078214832723,-1.0,588.0,0.4330969089741551,1
714,Pilot,d10012021,OH30k,reward_learning,2.0,42.0,17.0,-1.0,0.0,589.0,0.1655162453223443,-1.0,397.0,-0.7686683638693835,1
715,Pilot,d10012021,OH30k,reward_learning,2.0,43.0,43.0,1.0,157.0,383.0,-0.2891017084963614,1.0,397.0,-0.7686683638693835,1
716,Pilot,d10012021,OH30k,reward_learning,2.0,44.0,55.0,1.0,141.0,413.0,-0.2228952103674236,1.0,446.0,-0.4603620896843919,1
717,Pilot,d10012021,OH30k,reward_learning,2.0,45.0,59.0,1.0,140.0,656.0,0.3133774244769719,1.0,477.0,-0.2653111815265401,1
718,Pilot,d10012021,OH30k,reward_learning,2.0,46.0,18.0,-1.0,0.0,318.0,-0.4325491211090598,-1.0,429.0,-0.5673254909322462,1
719,Pilot,d10012021,OH30k,reward_learning,2.0,47.0,44.0,1.0,143.0,366.0,-0.3266187241027594,1.0,573.0,0.3387174372848719,1
720,Pilot,d10012021,OH30k,reward_learning,2.0,48.0,50.0,-1.0,0.0,558.0,0.097102863922442,-1.0,766.0,1.5530666396869817,1
721,Pilot,d10012021,OH30k,reward_learning,2.0,49.0,34.0,1.0,142.0,463.0,-0.1125510468191941,1.0,430.0,-0.5610335261529606,1
722,Pilot,d10012021,OH30k,reward_learning,2.0,50.0,2.0,-1.0,0.0,606.0,0.2030332609287423,-1.0,446.0,-0.4603620896843919,1
723,Pilot,d10012021,OH30k,reward_learning,2.0,51.0,55.0,1.0,141.0,321.0,-0.425928471296166,1.0,430.0,-0.5610335261529606,1
724,Pilot,d10012021,OH30k,reward_learning,2.0,52.0,43.0,1.0,157.0,286.0,-0.5031693857799268,1.0,429.0,-0.5673254909322462,1
725,Pilot,d10012021,OH30k,reward_learning,2.0,53.0,54.0,-1.0,0.0,333.0,-0.3994458720445909,-1.0,381.0,-0.8693398003379522,1
726,Pilot,d10012021,OH30k,reward_learning,2.0,54.0,22.0,1.0,140.0,448.0,-0.145654295883663,1.0,382.0,-0.8630478355586667,1
727,Pilot,d10012021,OH30k,reward_learning,2.0,55.0,5.0,1.0,150.0,335.0,-0.3950321055026617,1.0,413.0,-0.6679969274008148,1
728,Pilot,d10012021,OH30k,reward_learning,2.0,56.0,49.0,-1.0,0.0,303.0,-0.4656523701735287,-1.0,446.0,-0.4603620896843919,1
729,Pilot,d10012021,OH30k,reward_learning,2.0,57.0,34.0,1.0,142.0,320.0,-0.4281353545671306,1.0,445.0,-0.4666540544636775,1
730,Pilot,d10012021,OH30k,reward_learning,2.0,58.0,22.0,1.0,140.0,412.0,-0.2251020936383882,1.0,781.0,1.6474461113762648,1
731,Pilot,d10012021,OH30k,reward_learning,2.0,59.0,50.0,-1.0,0.0,388.0,-0.2780672921415384,-1.0,477.0,-0.2653111815265401,1
732,Pilot,d10012021,OH30k,reward_learning,2.0,60.0,33.0,1.0,159.0,591.0,0.1699300118642735,1.0,446.0,-0.4603620896843919,1
733,Pilot,d10012021,OH30k,reward_learning,2.0,61.0,25.0,-1.0,0.0,554.0,0.0882753308385836,-1.0,462.0,-0.3596906532158233,1
734,Pilot,d10012021,OH30k,reward_learning,2.0,62.0,5.0,1.0,150.0,351.0,-0.3597219731672283,-1.0,494.0,-0.1583477802786859,0
735,Pilot,d10012021,OH30k,reward_learning,2.0,63.0,59.0,1.0,140.0,337.0,-0.3906183389607325,1.0,413.0,-0.6679969274008148,1
736,Pilot,d10012021,OH30k,reward_learning,3.0,64.0,59.0,1.0,140.0,419.0,-0.2096539107416361,1.0,366.0,-0.9637192720272354,1
737,Pilot,d10012021,OH30k,reward_learning,3.0,65.0,54.0,-1.0,0.0,319.0,-0.4303422378380952,-1.0,446.0,-0.4603620896843919,1
738,Pilot,d10012021,OH30k,reward_learning,3.0,66.0,17.0,-1.0,0.0,335.0,-0.3950321055026617,-1.0,396.0,-0.7749603286486692,1
739,Pilot,d10012021,OH30k,reward_learning,3.0,67.0,43.0,1.0,157.0,350.0,-0.3619288564381929,1.0,430.0,-0.5610335261529606,1
740,Pilot,d10012021,OH30k,reward_learning,3.0,68.0,43.0,1.0,157.0,304.0,-0.4634454869025641,1.0,318.0,-1.2657335814329411,1
741,Pilot,d10012021,OH30k,reward_learning,3.0,69.0,14.0,-1.0,0.0,353.0,-0.3553082066252991,-1.0,654.0,0.848366584407001,1
742,Pilot,d10012021,OH30k,reward_learning,3.0,70.0,33.0,1.0,159.0,467.0,-0.1037235137353357,1.0,541.0,0.1373745643477346,1
743,Pilot,d10012021,OH30k,reward_learning,3.0,71.0,33.0,1.0,159.0,288.0,-0.4987556192379975,1.0,750.0,1.452395203218413,1
744,Pilot,d10012021,OH30k,reward_learning,3.0,72.0,14.0,-1.0,0.0,4648.0,9.123255442167618,-1.0,462.0,-0.3596906532158233,1
745,Pilot,d10012021,OH30k,reward_learning,3.0,73.0,44.0,1.0,143.0,367.0,-0.3244118408317948,1.0,413.0,-0.6679969274008148,1
746,Pilot,d10012021,OH30k,reward_learning,3.0,74.0,22.0,1.0,140.0,379.0,-0.2979292415802198,1.0,541.0,0.1373745643477346,1
747,Pilot,d10012021,OH30k,reward_learning,3.0,75.0,5.0,1.0,150.0,479.0,-0.0772409144837606,1.0,461.0,-0.3659826179951088,1
748,Pilot,d10012021,OH30k,reward_learning,3.0,76.0,2.0,-1.0,0.0,368.0,-0.3222049575608303,-1.0,654.0,0.848366584407001,1
749,Pilot,d10012021,OH30k,reward_learning,3.0,77.0,59.0,1.0,140.0,321.0,-0.425928471296166,1.0,398.0,-0.762376399090098,1
750,Pilot,d10012021,OH30k,reward_learning,3.0,78.0,49.0,-1.0,0.0,398.0,-0.2559984594318925,-1.0,526.0,0.0429950926584514,1
751,Pilot,d10012021,OH30k,reward_learning,3.0,79.0,22.0,1.0,140.0,320.0,-0.4281353545671306,1.0,398.0,-0.762376399090098,1
752,Pilot,d10012021,OH30k,reward_learning,3.0,80.0,5.0,1.0,150.0,589.0,0.1655162453223443,1.0,685.0,1.0434174925648527,1
753,Pilot,d10012021,OH30k,reward_learning,3.0,81.0,2.0,-1.0,0.0,318.0,-0.4325491211090598,-1.0,510.0,-0.0576763438101172,1
754,Pilot,d10012021,OH30k,reward_learning,3.0,82.0,55.0,1.0,141.0,601.0,0.1919988445739194,1.0,350.0,-1.064390708495804,1
755,Pilot,d10012021,OH30k,reward_learning,3.0,83.0,50.0,-1.0,0.0,304.0,-0.4634454869025641,-1.0,558.0,0.2443379655955888,1
756,Pilot,d10012021,OH30k,reward_learning,3.0,84.0,54.0,-1.0,0.0,304.0,-0.4634454869025641,-1.0,589.0,0.4393888737534406,1
757,Pilot,d10012021,OH30k,reward_learning,3.0,85.0,49.0,-1.0,0.0,303.0,-0.4656523701735287,-1.0,733.0,1.345431801970559,1
758,Pilot,d10012021,OH30k,reward_learning,3.0,86.0,44.0,1.0,143.0,447.0,-0.1478611791546276,1.0,382.0,-0.8630478355586667,1
759,Pilot,d10012021,OH30k,reward_learning,3.0,87.0,50.0,-1.0,0.0,609.0,0.2096539107416361,-1.0,1358.0,5.277909789024023,1
760,Pilot,d10012021,OH30k,reward_learning,3.0,88.0,17.0,-1.0,0.0,847.0,0.7348921292312087,-1.0,462.0,-0.3596906532158233,1
761,Pilot,d10012021,OH30k,reward_learning,3.0,89.0,25.0,-1.0,0.0,526.0,0.026482599251575,-1.0,461.0,-0.3659826179951088,1
762,Pilot,d10012021,OH30k,reward_learning,3.0,90.0,25.0,-1.0,0.0,461.0,-0.1169648133611233,-1.0,412.0,-0.6742888921801005,1
763,Pilot,d10012021,OH30k,reward_learning,3.0,91.0,34.0,1.0,142.0,400.0,-0.2515846928899634,1.0,493.0,-0.1646397450579714,1
764,Pilot,d10012021,OH30k,reward_learning,3.0,92.0,18.0,-1.0,0.0,557.0,0.0948959806514774,-1.0,430.0,-0.5610335261529606,1
765,Pilot,d10012021,OH30k,reward_learning,3.0,93.0,18.0,-1.0,0.0,480.0,-0.075034031212796,-1.0,397.0,-0.7686683638693835,1
766,Pilot,d10012021,OH30k,reward_learning,3.0,94.0,34.0,1.0,142.0,366.0,-0.3266187241027594,1.0,493.0,-0.1646397450579714,1
767,Pilot,d10012021,OH30k,reward_learning,3.0,95.0,55.0,1.0,141.0,333.0,-0.3994458720445909,1.0,493.0,-0.1646397450579714,1
768,Pilot,d09302021,c4z0I,reward_learning,1.0,0.0,32.0,1.0,144.0,670.0,2.7152756265467173,1.0,601.0,2.506091362870446,1
769,Pilot,d09302021,c4z0I,reward_learning,1.0,1.0,40.0,-1.0,0.0,590.0,2.105101328446332,-1.0,491.0,1.4132016336979534,1
770,Pilot,d09302021,c4z0I,reward_learning,1.0,2.0,58.0,-1.0,0.0,280.0,-0.259324076692664,-1.0,472.0,1.224429771386341,1
771,Pilot,d09302021,c4z0I,reward_learning,1.0,3.0,39.0,-1.0,0.0,215.0,-0.7550906938992276,-1.0,458.0,1.0853347149462056,1
772,Pilot,d09302021,c4z0I,reward_learning,1.0,4.0,39.0,-1.0,0.0,216.0,-0.7474635151729727,-1.0,451.0,1.015787186726138,1
773,Pilot,d09302021,c4z0I,reward_learning,1.0,5.0,41.0,-1.0,0.0,442.0,0.9762788769606174,-1.0,389.0,0.3997947939198236,1
774,Pilot,d09302021,c4z0I,reward_learning,1.0,6.0,31.0,1.0,147.0,236.0,-0.5949199406478762,1.0,332.0,-0.1665207930150135,1
775,Pilot,d09302021,c4z0I,reward_learning,1.0,7.0,17.0,-1.0,0.0,210.0,-0.7932265875305017,-1.0,498.0,1.482749161918021,1
776,Pilot,d09302021,c4z0I,reward_learning,1.0,8.0,17.0,-1.0,0.0,237.0,-0.5872927619216214,-1.0,321.0,-0.2758097659322628,1
777,Pilot,d09302021,c4z0I,reward_learning,1.0,9.0,13.0,1.0,150.0,256.0,-0.4423763661227797,1.0,329.0,-0.1963268765378997,1
778,Pilot,d09302021,c4z0I,reward_learning,1.0,10.0,54.0,1.0,153.0,366.0,0.3966132937652508,1.0,374.0,0.2507643763053928,1
779,Pilot,d09302021,c4z0I,reward_learning,1.0,11.0,32.0,1.0,144.0,211.0,-0.7855994088042468,1.0,377.0,0.280570459828279,1
780,Pilot,d09302021,c4z0I,reward_learning,1.0,12.0,46.0,-1.0,0.0,192.0,-0.9305158046030884,-1.0,416.0,0.6680495456257992,1
781,Pilot,d09302021,c4z0I,reward_learning,1.0,13.0,40.0,-1.0,0.0,192.0,-0.9305158046030884,-1.0,389.0,0.3997947939198236,1
782,Pilot,d09302021,c4z0I,reward_learning,1.0,14.0,47.0,-1.0,0.0,211.0,-0.7855994088042468,-1.0,309.0,-0.3950341000238075,1
783,Pilot,d09302021,c4z0I,reward_learning,1.0,15.0,1.0,1.0,153.0,227.0,-0.6635645491841696,-1.0,358.0,0.0917985975166665,0
784,Pilot,d09302021,c4z0I,reward_learning,1.0,16.0,37.0,-1.0,0.0,295.0,-0.1449163957988416,-1.0,422.0,0.7276617126715715,1
785,Pilot,d09302021,c4z0I,reward_learning,1.0,17.0,48.0,1.0,146.0,210.0,-0.7932265875305017,1.0,406.0,0.5686959338828452,1
786,Pilot,d09302021,c4z0I,reward_learning,1.0,18.0,58.0,-1.0,0.0,217.0,-0.7398363364467179,-1.0,369.0,0.2010875704339158,1
787,Pilot,d09302021,c4z0I,reward_learning,1.0,19.0,48.0,1.0,146.0,251.0,-0.4805122597540538,1.0,691.0,3.400273868557031,1
788,Pilot,d09302021,c4z0I,reward_learning,1.0,20.0,46.0,-1.0,0.0,192.0,-0.9305158046030884,-1.0,418.0,0.68792026797439,1
789,Pilot,d09302021,c4z0I,reward_learning,1.0,21.0,33.0,1.0,144.0,298.0,-0.1220348596200771,1.0,384.0,0.3501179880483467,1
790,Pilot,d09302021,c4z0I,reward_learning,1.0,22.0,33.0,1.0,144.0,234.0,-0.6101742981003859,1.0,310.0,-0.3850987388495121,1
791,Pilot,d09302021,c4z0I,reward_learning,1.0,23.0,13.0,1.0,150.0,239.0,-0.5720384044691118,1.0,372.0,0.230893653956802,1
792,Pilot,d09302021,c4z0I,reward_learning,1.0,24.0,37.0,-1.0,0.0,235.0,-0.6025471193741311,-1.0,316.0,-0.3254865718037397,1
793,Pilot,d09302021,c4z0I,reward_learning,1.0,25.0,47.0,-1.0,0.0,227.0,-0.6635645491841696,-1.0,440.0,0.9064982138088884,1
794,Pilot,d09302021,c4z0I,reward_learning,1.0,26.0,54.0,1.0,153.0,206.0,-0.823735302435521,1.0,337.0,-0.1168439871435366,1
795,Pilot,d09302021,c4z0I,reward_learning,1.0,27.0,16.0,1.0,144.0,201.0,-0.8618711960667951,1.0,376.0,0.2706350986539836,1
796,Pilot,d09302021,c4z0I,reward_learning,1.0,28.0,1.0,1.0,153.0,221.0,-0.7093276215416986,1.0,268.0,-0.8023839081699184,1
797,Pilot,d09302021,c4z0I,reward_learning,1.0,29.0,31.0,1.0,147.0,224.0,-0.686446085362934,-1.0,283.0,-0.6533534905554876,0
798,Pilot,d09302021,c4z0I,reward_learning,1.0,30.0,16.0,1.0,144.0,222.0,-0.7017004428154437,1.0,357.0,0.0818632363423711,1
799,Pilot,d09302021,c4z0I,reward_learning,1.0,31.0,41.0,-1.0,0.0,238.0,-0.5796655831953665,-1.0,408.0,0.588566656231436,1
800,Pilot,d09302021,c4z0I,reward_learning,2.0,32.0,46.0,-1.0,0.0,1129.0,6.216150661897681,-1.0,701.0,3.499627480299985,1
801,Pilot,d09302021,c4z0I,reward_learning,2.0,33.0,54.0,1.0,153.0,485.0,1.3042475621895748,1.0,473.0,1.2343651325606364,1
802,Pilot,d09302021,c4z0I,reward_learning,2.0,34.0,47.0,-1.0,0.0,226.0,-0.6711917279104245,-1.0,362.0,0.1315400422138481,1
803,Pilot,d09302021,c4z0I,reward_learning,2.0,35.0,1.0,1.0,153.0,532.0,1.6627249623235516,1.0,309.0,-0.3950341000238075,1
804,Pilot,d09302021,c4z0I,reward_learning,2.0,36.0,37.0,-1.0,0.0,421.0,0.8161081237092661,-1.0,322.0,-0.2658744047579674,1
805,Pilot,d09302021,c4z0I,reward_learning,2.0,37.0,48.0,1.0,146.0,513.0,1.51780856652471,1.0,433.0,0.8369506855888208,1
806,Pilot,d09302021,c4z0I,reward_learning,2.0,38.0,16.0,1.0,144.0,245.0,-0.5262753321115828,1.0,288.0,-0.6036766846840107,1
807,Pilot,d09302021,c4z0I,reward_learning,2.0,39.0,58.0,-1.0,0.0,249.0,-0.4957666172065635,-1.0,191.0,-1.5674067185906635,1
808,Pilot,d09302021,c4z0I,reward_learning,2.0,40.0,41.0,-1.0,0.0,285.0,-0.2211881830613898,-1.0,266.0,-0.8222546305185092,1
809,Pilot,d09302021,c4z0I,reward_learning,2.0,41.0,40.0,-1.0,0.0,276.0,-0.2898327915976832,-1.0,424.0,0.7475324350201623,1
810,Pilot,d09302021,c4z0I,reward_learning,2.0,42.0,32.0,1.0,144.0,193.0,-0.9228886258768336,-1.0,294.0,-0.5440645176382384,0
811,Pilot,d09302021,c4z0I,reward_learning,2.0,43.0,16.0,1.0,144.0,242.0,-0.5491568682903473,1.0,260.0,-0.8818667975642815,1
812,Pilot,d09302021,c4z0I,reward_learning,2.0,44.0,46.0,-1.0,0.0,445.0,0.999160413139382,-1.0,295.0,-0.534129156463943,1
813,Pilot,d09302021,c4z0I,reward_learning,2.0,45.0,54.0,1.0,153.0,234.0,-0.6101742981003859,-1.0,272.0,-0.7626424634727369,0
814,Pilot,d09302021,c4z0I,reward_learning,2.0,46.0,31.0,1.0,147.0,254.0,-0.4576307235752894,1.0,293.0,-0.5539998788125338,1
815,Pilot,d09302021,c4z0I,reward_learning,2.0,47.0,17.0,-1.0,0.0,311.0,-0.0228815361787644,-1.0,453.0,1.0356579090747289,1
816,Pilot,d09302021,c4z0I,reward_learning,2.0,48.0,41.0,-1.0,0.0,334.0,0.1525435745250964,-1.0,500.0,1.502619884266612,1
817,Pilot,d09302021,c4z0I,reward_learning,2.0,49.0,39.0,-1.0,0.0,360.0,0.3508502214077219,-1.0,395.0,0.4594069609655959,1
818,Pilot,d09302021,c4z0I,reward_learning,2.0,50.0,37.0,-1.0,0.0,275.0,-0.2974599703239381,-1.0,402.0,0.5289544891856637,1
819,Pilot,d09302021,c4z0I,reward_learning,2.0,51.0,47.0,-1.0,0.0,249.0,-0.4957666172065635,-1.0,389.0,0.3997947939198236,1
820,Pilot,d09302021,c4z0I,reward_learning,2.0,52.0,58.0,-1.0,0.0,278.0,-0.2745784341451736,-1.0,324.0,-0.2460036824093766,1
821,Pilot,d09302021,c4z0I,reward_learning,2.0,53.0,48.0,1.0,146.0,321.0,0.0533902510837837,1.0,368.0,0.1911522092596204,1
822,Pilot,d09302021,c4z0I,reward_learning,2.0,54.0,13.0,1.0,150.0,366.0,0.3966132937652508,1.0,281.0,-0.6732242129040784,1
823,Pilot,d09302021,c4z0I,reward_learning,2.0,55.0,13.0,1.0,150.0,409.0,0.7245819789942082,1.0,269.0,-0.7924485469956231,1
824,Pilot,d09302021,c4z0I,reward_learning,2.0,56.0,40.0,-1.0,0.0,369.0,0.4194948299440152,-1.0,333.0,-0.1565854318407181,1
825,Pilot,d09302021,c4z0I,reward_learning,2.0,57.0,33.0,1.0,144.0,382.0,0.518648153385328,1.0,244.0,-1.0408325763530075,1
826,Pilot,d09302021,c4z0I,reward_learning,2.0,58.0,33.0,1.0,144.0,573.0,1.9754392900999995,1.0,297.0,-0.5142584341153522,1
827,Pilot,d09302021,c4z0I,reward_learning,2.0,59.0,17.0,-1.0,0.0,303.0,-0.083898965988803,-1.0,260.0,-0.8818667975642815,1
828,Pilot,d09302021,c4z0I,reward_learning,2.0,60.0,39.0,-1.0,0.0,410.0,0.732209157720463,-1.0,228.0,-1.199798355141734,1
829,Pilot,d09302021,c4z0I,reward_learning,2.0,61.0,1.0,1.0,153.0,416.0,0.777972230077992,1.0,151.0,-1.964821165562479,1
830,Pilot,d09302021,c4z0I,reward_learning,2.0,62.0,32.0,1.0,144.0,436.0,0.9305158046030884,-1.0,212.0,-1.3587641339304604,0
831,Pilot,d09302021,c4z0I,reward_learning,2.0,63.0,31.0,1.0,147.0,532.0,1.6627249623235516,-1.0,265.0,-0.8321899916928046,0
832,Pilot,d09302021,c4z0I,reward_learning,3.0,64.0,58.0,-1.0,0.0,409.0,0.7245819789942082,-1.0,425.0,0.7574677961944577,1
833,Pilot,d09302021,c4z0I,reward_learning,3.0,65.0,17.0,-1.0,0.0,271.0,-0.3279686852289574,-1.0,322.0,-0.2658744047579674,1
834,Pilot,d09302021,c4z0I,reward_learning,3.0,66.0,37.0,-1.0,0.0,273.0,-0.3127143277764477,-1.0,372.0,0.230893653956802,1
835,Pilot,d09302021,c4z0I,reward_learning,3.0,67.0,40.0,-1.0,0.0,252.0,-0.472885081027799,-1.0,383.0,0.3401826268740513,1
836,Pilot,d09302021,c4z0I,reward_learning,3.0,68.0,41.0,-1.0,0.0,518.0,1.555944460155984,-1.0,262.0,-0.8619960752156908,1
837,Pilot,d09302021,c4z0I,reward_learning,3.0,69.0,1.0,1.0,153.0,333.0,0.1449163957988416,1.0,183.0,-1.6468896079850266,1
838,Pilot,d09302021,c4z0I,reward_learning,3.0,70.0,13.0,1.0,150.0,253.0,-0.4652579023015442,1.0,320.0,-0.2857451271065582,1
839,Pilot,d09302021,c4z0I,reward_learning,3.0,71.0,48.0,1.0,146.0,245.0,-0.5262753321115828,1.0,458.0,1.0853347149462056,1
840,Pilot,d09302021,c4z0I,reward_learning,3.0,72.0,58.0,-1.0,0.0,311.0,-0.0228815361787644,-1.0,502.0,1.5224906066152026,1
841,Pilot,d09302021,c4z0I,reward_learning,3.0,73.0,17.0,-1.0,0.0,262.0,-0.3966132937652508,-1.0,365.0,0.1613461257367343,1
842,Pilot,d09302021,c4z0I,reward_learning,3.0,74.0,40.0,-1.0,0.0,260.0,-0.4118676512177605,-1.0,411.0,0.6183727397543223,1
843,Pilot,d09302021,c4z0I,reward_learning,3.0,75.0,32.0,1.0,144.0,267.0,-0.3584774001339767,1.0,380.0,0.3103765433511651,1
844,Pilot,d09302021,c4z0I,reward_learning,3.0,76.0,1.0,1.0,153.0,252.0,-0.472885081027799,1.0,269.0,-0.7924485469956231,1
845,Pilot,d09302021,c4z0I,reward_learning,3.0,77.0,41.0,-1.0,0.0,263.0,-0.388986115038996,-1.0,454.0,1.045593270249024,1
846,Pilot,d09302021,c4z0I,reward_learning,3.0,78.0,32.0,1.0,144.0,324.0,0.0762717872625482,1.0,242.0,-1.0607032987015983,1
847,Pilot,d09302021,c4z0I,reward_learning,3.0,79.0,16.0,1.0,144.0,301.0,-0.0991533234413127,1.0,271.0,-0.7725778246470323,1
848,Pilot,d09302021,c4z0I,reward_learning,3.0,80.0,16.0,1.0,144.0,382.0,0.518648153385328,1.0,168.0,-1.7959200255994574,1
849,Pilot,d09302021,c4z0I,reward_learning,3.0,81.0,39.0,-1.0,0.0,316.0,0.0152543574525096,-1.0,223.0,-1.2494751610132109,1
850,Pilot,d09302021,c4z0I,reward_learning,3.0,82.0,33.0,1.0,144.0,254.0,-0.4576307235752894,1.0,276.0,-0.7229010187755553,1
851,Pilot,d09302021,c4z0I,reward_learning,3.0,83.0,46.0,-1.0,0.0,242.0,-0.5491568682903473,-1.0,288.0,-0.6036766846840107,1
852,Pilot,d09302021,c4z0I,reward_learning,3.0,84.0,47.0,-1.0,0.0,248.0,-0.5033937959328183,1.0,259.0,-0.8918021587385769,0
853,Pilot,d09302021,c4z0I,reward_learning,3.0,85.0,37.0,-1.0,0.0,214.0,-0.7627178726254823,-1.0,397.0,0.4792776833141868,1
854,Pilot,d09302021,c4z0I,reward_learning,3.0,86.0,33.0,1.0,144.0,338.0,0.1830522894301157,1.0,204.0,-1.4382470233248237,1
855,Pilot,d09302021,c4z0I,reward_learning,3.0,87.0,31.0,1.0,147.0,268.0,-0.3508502214077219,1.0,320.0,-0.2857451271065582,1
856,Pilot,d09302021,c4z0I,reward_learning,3.0,88.0,46.0,-1.0,0.0,277.0,-0.2822056128714285,-1.0,263.0,-0.8520607140413954,1
857,Pilot,d09302021,c4z0I,reward_learning,3.0,89.0,54.0,1.0,153.0,282.0,-0.2440697192401543,1.0,239.0,-1.090509382224485,1
858,Pilot,d09302021,c4z0I,reward_learning,3.0,90.0,54.0,1.0,153.0,261.0,-0.4042404724915056,1.0,228.0,-1.199798355141734,1
859,Pilot,d09302021,c4z0I,reward_learning,3.0,91.0,47.0,-1.0,0.0,272.0,-0.3203415065027026,-1.0,285.0,-0.6334827682068969,1
860,Pilot,d09302021,c4z0I,reward_learning,3.0,92.0,13.0,1.0,150.0,314.0,0.0,1.0,355.0,0.0619925139937804,1
861,Pilot,d09302021,c4z0I,reward_learning,3.0,93.0,31.0,1.0,147.0,470.0,1.1898398812957525,1.0,420.0,0.7077909903229808,1
862,Pilot,d09302021,c4z0I,reward_learning,3.0,94.0,39.0,-1.0,0.0,387.0,0.5567840470166021,-1.0,212.0,-1.3587641339304604,1
863,Pilot,d09302021,c4z0I,reward_learning,3.0,95.0,48.0,1.0,146.0,311.0,-0.0228815361787644,1.0,449.0,0.995916464377547,1
864,Pilot,d09302021,h3ty7,reward_learning,1.0,0.0,44.0,1.0,149.0,917.0,0.8229264771574868,1.0,1398.0,3.644629732727415,1
865,Pilot,d09302021,h3ty7,reward_learning,1.0,1.0,28.0,1.0,145.0,771.0,0.3763861169623906,1.0,600.0,0.0417625581018626,1
866,Pilot,d09302021,h3ty7,reward_learning,1.0,2.0,12.0,1.0,158.0,759.0,0.339684169549095,1.0,808.0,0.9808557565005028,1
867,Pilot,d09302021,h3ty7,reward_learning,1.0,3.0,29.0,-1.0,0.0,599.0,-0.149675129294846,-1.0,750.0,0.7189932300239589,1
868,Pilot,d09302021,h3ty7,reward_learning,1.0,4.0,57.0,1.0,143.0,850.0,0.6180072707665865,1.0,639.0,0.2178425328016076,1
869,Pilot,d09302021,h3ty7,reward_learning,1.0,5.0,0.0,-1.0,0.0,575.0,-0.2230790241214371,-1.0,751.0,0.7235081011701062,1
870,Pilot,d09302021,h3ty7,reward_learning,1.0,6.0,36.0,1.0,151.0,468.0,-0.5503380552233228,1.0,568.0,-0.1027133185748512,1
871,Pilot,d09302021,h3ty7,reward_learning,1.0,7.0,12.0,1.0,158.0,773.0,0.3825031081979398,1.0,678.0,0.3939225075013526,1
872,Pilot,d09302021,h3ty7,reward_learning,1.0,8.0,54.0,1.0,150.0,669.0,0.0644195639493781,1.0,524.0,-0.3013676490053328,1
873,Pilot,d09302021,h3ty7,reward_learning,1.0,9.0,16.0,-1.0,0.0,928.0,0.8565699289530078,-1.0,585.0,-0.025960509090347,1
874,Pilot,d09302021,h3ty7,reward_learning,1.0,10.0,16.0,-1.0,0.0,1256.0,1.8597564915830869,-1.0,583.0,-0.0349902513826416,1
875,Pilot,d09302021,h3ty7,reward_learning,1.0,11.0,35.0,1.0,142.0,452.0,-0.5992739851077169,1.0,528.0,-0.2833081644207436,1
876,Pilot,d09302021,h3ty7,reward_learning,1.0,12.0,0.0,-1.0,0.0,376.0,-0.8317196520585889,-1.0,447.0,-0.6490127272586756,1
877,Pilot,d09302021,h3ty7,reward_learning,1.0,13.0,47.0,-1.0,0.0,493.0,-0.473875664778957,1.0,478.0,-0.5090517217281091,0
878,Pilot,d09302021,h3ty7,reward_learning,1.0,14.0,52.0,-1.0,0.0,676.0,0.0858290332738006,-1.0,863.0,1.2291736695386049,1
879,Pilot,d09302021,h3ty7,reward_learning,1.0,15.0,57.0,1.0,143.0,1368.0,2.202308000773846,1.0,912.0,1.450402355699823,1
880,Pilot,d09302021,h3ty7,reward_learning,1.0,16.0,29.0,-1.0,0.0,295.0,-1.079457797098334,-1.0,463.0,-0.5767747889203186,1
881,Pilot,d09302021,h3ty7,reward_learning,1.0,17.0,47.0,-1.0,0.0,271.0,-1.1528616919249253,1.0,349.0,-1.091470099581112,0
882,Pilot,d09302021,h3ty7,reward_learning,1.0,18.0,44.0,1.0,149.0,530.0,-0.3607113269212956,1.0,498.0,-0.4187542988051629,1
883,Pilot,d09302021,h3ty7,reward_learning,1.0,19.0,25.0,1.0,160.0,431.0,-0.6635023930809841,1.0,670.0,0.3578035383321742,1
884,Pilot,d09302021,h3ty7,reward_learning,1.0,20.0,30.0,-1.0,0.0,149.0,-1.5259981572934302,-1.0,591.0,0.0011287177865368,1
885,Pilot,d09302021,h3ty7,reward_learning,1.0,21.0,1.0,-1.0,0.0,620.0,-0.0854467213215787,-1.0,810.0,0.9898854987927974,1
886,Pilot,d09302021,h3ty7,reward_learning,1.0,22.0,36.0,1.0,151.0,648.0,0.0001911559761109,1.0,607.0,0.0733666561248937,1
887,Pilot,d09302021,h3ty7,reward_learning,1.0,23.0,52.0,-1.0,0.0,636.0,-0.0365107914371846,-1.0,415.0,-0.7934886039353894,1
888,Pilot,d09302021,h3ty7,reward_learning,1.0,24.0,54.0,1.0,150.0,504.0,-0.440232212983436,1.0,361.0,-1.0372916458273442,1
889,Pilot,d09302021,h3ty7,reward_learning,1.0,25.0,39.0,-1.0,0.0,648.0,0.0001911559761109,-1.0,575.0,-0.0711092205518201,1
890,Pilot,d09302021,h3ty7,reward_learning,1.0,26.0,1.0,-1.0,0.0,574.0,-0.2261375197392118,1.0,322.0,-1.2133716205270892,0
891,Pilot,d09302021,h3ty7,reward_learning,1.0,27.0,30.0,-1.0,0.0,884.0,0.721996121770924,-1.0,497.0,-0.4232691699513102,1
892,Pilot,d09302021,h3ty7,reward_learning,1.0,28.0,28.0,1.0,145.0,783.0,0.4130880643756862,1.0,534.0,-0.2562189375438597,1
893,Pilot,d09302021,h3ty7,reward_learning,1.0,29.0,35.0,1.0,142.0,798.0,0.4589654986423057,1.0,799.0,0.940221916185177,1
894,Pilot,d09302021,h3ty7,reward_learning,1.0,30.0,39.0,-1.0,0.0,627.0,-0.0640372519971563,-1.0,555.0,-0.1614066434747663,1
895,Pilot,d09302021,h3ty7,reward_learning,1.0,31.0,25.0,1.0,160.0,679.0,0.0950045201271245,1.0,487.0,-0.4684178814127833,1
896,Pilot,d09302021,h3ty7,reward_learning,2.0,32.0,39.0,-1.0,0.0,962.0,0.9605587799573452,-1.0,617.0,0.1185153675863668,1
897,Pilot,d09302021,h3ty7,reward_learning,2.0,33.0,0.0,-1.0,0.0,479.0,-0.5166946034278018,-1.0,349.0,-1.091470099581112,1
898,Pilot,d09302021,h3ty7,reward_learning,2.0,34.0,12.0,1.0,158.0,475.0,-0.5289285858989003,1.0,422.0,-0.7618845059123583,1
899,Pilot,d09302021,h3ty7,reward_learning,2.0,35.0,16.0,-1.0,0.0,278.0,-1.1314522226005028,1.0,457.0,-0.6038640157972025,0
900,Pilot,d09302021,h3ty7,reward_learning,2.0,36.0,35.0,1.0,142.0,615.0,-0.1007391994104519,1.0,722.0,0.5925768379318342,1
901,Pilot,d09302021,h3ty7,reward_learning,2.0,37.0,47.0,-1.0,0.0,558.0,-0.2750734496236059,-1.0,455.0,-0.6128937580894972,1
902,Pilot,d09302021,h3ty7,reward_learning,2.0,38.0,52.0,-1.0,0.0,393.0,-0.7797252265564202,1.0,456.0,-0.6083788869433499,0
903,Pilot,d09302021,h3ty7,reward_learning,2.0,39.0,54.0,1.0,150.0,896.0,0.7586980691842196,1.0,455.0,-0.6128937580894972,1
904,Pilot,d09302021,h3ty7,reward_learning,2.0,40.0,29.0,-1.0,0.0,826.0,0.5446033759399953,-1.0,379.0,-0.9560239651966926,1
905,Pilot,d09302021,h3ty7,reward_learning,2.0,41.0,28.0,1.0,145.0,542.0,-0.324009379508,1.0,369.0,-1.0011726766581657,1
906,Pilot,d09302021,h3ty7,reward_learning,2.0,42.0,0.0,-1.0,0.0,399.0,-0.7613742528497723,-1.0,480.0,-0.5000219794358144,1
907,Pilot,d09302021,h3ty7,reward_learning,2.0,43.0,16.0,-1.0,0.0,379.0,-0.822544165205265,-1.0,569.0,-0.0981984474287039,1
908,Pilot,d09302021,h3ty7,reward_learning,2.0,44.0,1.0,-1.0,0.0,470.0,-0.5442210639877735,-1.0,498.0,-0.4187542988051629,1
909,Pilot,d09302021,h3ty7,reward_learning,2.0,45.0,25.0,1.0,160.0,496.0,-0.464700177925633,1.0,400.0,-0.8612116711275991,1
910,Pilot,d09302021,h3ty7,reward_learning,2.0,46.0,47.0,-1.0,0.0,368.0,-0.8561876170007859,-1.0,519.0,-0.3239420047360694,1
