,Exp,group,PID,phase,condition,block,trial,stimulus_left,stimulus_right,painting_left,painting_right,rating_left,rating_right,explain_trial,explain_response,novel_left,left_chosen,chosen_obj,unchosen_obj,rt,zscored_rt,delta_ratings,zcored_rating_left,zcored_rating_right,zscored_delta_ratings
0,Pilot,d10012021,arjeO,interference,1.0,1.0,0.0,32.0,22.0,Macka1.jpg,Macb1n.jpg,56.0,37.0,1.0,,0.0,1.0,32.0,22.0,2.145,2.3624116559354107,19.0,0.36933721222416166,-0.4594903900111616,0.8288276022353233
1,Pilot,d10012021,arjeO,interference,0.0,1.0,1.0,8.0,35.0,Klina1.jpg,Wdeka1.jpg,57.0,35.0,0.0,,,1.0,8.0,35.0,1.421,0.5204397489315877,22.0,0.4129597176049682,-0.5467354007727746,0.9596951183777428
2,Pilot,d10012021,arjeO,interference,0.0,1.0,2.0,16.0,12.0,Lewa1n.jpg,Kupkc1.jpg,37.0,65.0,0.0,,,0.0,12.0,16.0,1.108,-0.27588236003553457,-28.0,-0.4594903900111616,0.7619397606514201,-1.2214301506625818
3,Pilot,d10012021,arjeO,interference,1.0,1.0,3.0,52.0,41.0,Picaa1.jpg,Vincb1.jpg,67.0,46.0,1.0,,1.0,0.0,41.0,52.0,2.63,3.5963293008205683,21.0,0.8491847714130331,-0.0668878415839032,0.9160726129969362
4,Pilot,d10012021,arjeO,interference,0.0,1.0,4.0,45.0,40.0,Klia1n.jpg,Krab1n.jpg,45.0,29.0,0.0,,,0.0,40.0,45.0,1.827,1.5533687465055546,16.0,-0.11051034696470968,-0.8084704330576135,0.6979600860929038
5,Pilot,d10012021,arjeO,interference,1.0,1.0,5.0,36.0,50.0,Gorkf1.jpg,Gorke1.jpg,26.0,33.0,1.0,,0.0,1.0,36.0,50.0,1.553,0.8562688811477541,-7.0,-0.939337949200033,-0.6339804115343876,-0.30535753766564544
6,Pilot,d10012021,arjeO,interference,1.0,1.0,6.0,39.0,18.0,Dekb1n.jpg,Krasb1.jpg,63.0,57.0,1.0,,0.0,1.0,39.0,18.0,1.133,-0.21227835772186684,6.0,0.6746947498898072,0.4129597176049682,0.26173503228483896
7,Pilot,d10012021,arjeO,interference,1.0,1.0,7.0,56.0,13.0,Luisc1.jpg,Picak1.jpg,44.0,39.0,1.0,,0.0,1.0,56.0,13.0,1.483,0.6781776746694843,5.0,-0.15413285234551619,-0.3722453792495486,0.2181125269040324
8,Pilot,d10012021,arjeO,interference,1.0,1.0,8.0,37.0,47.0,Mondb1.jpg,Kupkd1.jpg,63.0,55.0,1.0,,1.0,0.0,47.0,37.0,1.678,1.1742888927160937,8.0,0.6746947498898072,0.3257147068433552,0.34898004304645197
9,Pilot,d10012021,arjeO,interference,0.0,1.0,9.0,14.0,48.0,Kupkb1.jpg,Picb1n.jpg,43.0,58.0,0.0,,,0.0,48.0,14.0,1.263,0.1184624543092061,-15.0,-0.19775535772632266,0.45658222298577467,-0.6543375807120974
10,Pilot,d10012021,arjeO,interference,0.0,1.0,10.0,21.0,49.0,Lewb1n.jpg,Hinda1.jpg,58.0,66.0,0.0,,,0.0,49.0,21.0,1.132,-0.21482251781441383,-8.0,0.45658222298577467,0.8055622660322266,-0.3489800430464519
11,Pilot,d10012021,arjeO,interference,1.0,1.0,11.0,10.0,4.0,Stera1.jpg,Mackb1.jpg,33.0,46.0,1.0,,1.0,0.0,4.0,10.0,1.176,-0.10287947374235819,-13.0,-0.6339804115343876,-0.0668878415839032,-0.5670925699504844
12,Pilot,d10012021,arjeO,interference,0.0,1.0,12.0,5.0,33.0,Kupb1n.jpg,Kupc1n.jpg,62.0,52.0,0.0,,,1.0,5.0,33.0,1.105,-0.283514840313175,10.0,0.6310722445090006,0.19484719070093573,0.43622505380806487
13,Pilot,d10012021,arjeO,interference,0.0,1.0,13.0,30.0,25.0,Lasse1.jpg,Clifa1.jpg,67.0,65.0,0.0,,,0.0,25.0,30.0,0.904,-0.794891018915065,2.0,0.8491847714130331,0.7619397606514201,0.08724501076161295
14,Pilot,d10012021,arjeO,interference,1.0,1.0,14.0,9.0,19.0,Lassc1.jpg,Macc1n.jpg,65.0,65.0,1.0,,1.0,0.0,19.0,9.0,1.006,-0.5353866894752999,0.0,0.7619397606514201,0.7619397606514201,0.0
15,Pilot,d10012021,arjeO,interference,0.0,1.0,15.0,7.0,57.0,Pica1n.jpg,Lewc1n.jpg,67.0,22.0,0.0,,,1.0,7.0,57.0,0.919,-0.7567286175268642,45.0,0.8491847714130331,-1.113827970723259,1.963012742136292
16,Pilot,d10012021,arjeO,interference,1.0,2.0,16.0,10.0,4.0,Stera1.jpg,Mackb1.jpg,33.0,46.0,0.0,,1.0,0.0,4.0,10.0,0.866,-0.8915691024318403,-13.0,-0.6339804115343876,-0.0668878415839032,-0.5670925699504844
17,Pilot,d10012021,arjeO,interference,1.0,2.0,17.0,39.0,18.0,Dekb1n.jpg,Krasb1.jpg,63.0,57.0,0.0,,0.0,1.0,39.0,18.0,0.85,-0.9322756639125879,6.0,0.6746947498898072,0.4129597176049682,0.26173503228483896
18,Pilot,d10012021,arjeO,interference,0.0,2.0,18.0,5.0,33.0,Kupb1n.jpg,Kupc1n.jpg,62.0,52.0,1.0,,,1.0,5.0,33.0,1.078,-0.35220716281193615,10.0,0.6310722445090006,0.19484719070093573,0.43622505380806487
19,Pilot,d10012021,arjeO,interference,0.0,2.0,19.0,14.0,48.0,Kupkb1.jpg,Picb1n.jpg,43.0,58.0,1.0,,,0.0,48.0,14.0,1.428,0.5382488695794145,-15.0,-0.19775535772632266,0.45658222298577467,-0.6543375807120974
20,Pilot,d10012021,arjeO,interference,1.0,2.0,20.0,9.0,19.0,Lassc1.jpg,Macc1n.jpg,65.0,65.0,0.0,,1.0,0.0,19.0,9.0,1.052,-0.41835532521815083,0.0,0.7619397606514201,0.7619397606514201,0.0
21,Pilot,d10012021,arjeO,interference,1.0,2.0,21.0,36.0,50.0,Gorkf1.jpg,Gorke1.jpg,26.0,33.0,0.0,,0.0,1.0,36.0,50.0,1.187,-0.074893712724344,-7.0,-0.939337949200033,-0.6339804115343876,-0.30535753766564544
22,Pilot,d10012021,arjeO,interference,1.0,2.0,22.0,56.0,13.0,Luisc1.jpg,Picak1.jpg,44.0,39.0,0.0,,0.0,1.0,56.0,13.0,1.073,-0.36492796327467,5.0,-0.15413285234551619,-0.3722453792495486,0.2181125269040324
23,Pilot,d10012021,arjeO,interference,0.0,2.0,23.0,45.0,40.0,Klia1n.jpg,Krab1n.jpg,45.0,29.0,1.0,,,0.0,40.0,45.0,2.534,3.3520899319360833,16.0,-0.11051034696470968,-0.8084704330576135,0.6979600860929038
24,Pilot,d10012021,arjeO,interference,0.0,2.0,24.0,8.0,35.0,Klina1.jpg,Wdeka1.jpg,57.0,35.0,1.0,,,1.0,8.0,35.0,1.186,-0.077437872816891,22.0,0.4129597176049682,-0.5467354007727746,0.9596951183777428
25,Pilot,d10012021,arjeO,interference,0.0,2.0,25.0,16.0,12.0,Lewa1n.jpg,Kupkc1.jpg,37.0,65.0,1.0,,,0.0,12.0,16.0,1.044,-0.43870860595852457,-28.0,-0.4594903900111616,0.7619397606514201,-1.2214301506625818
26,Pilot,d10012021,arjeO,interference,1.0,2.0,26.0,37.0,47.0,Mondb1.jpg,Kupkd1.jpg,63.0,55.0,0.0,,1.0,0.0,47.0,37.0,1.148,-0.17411595633366633,8.0,0.6746947498898072,0.3257147068433552,0.34898004304645197
27,Pilot,d10012021,arjeO,interference,1.0,2.0,27.0,32.0,22.0,Macka1.jpg,Macb1n.jpg,56.0,37.0,0.0,,0.0,1.0,32.0,22.0,1.111,-0.26824987975789466,19.0,0.36933721222416166,-0.4594903900111616,0.8288276022353233
28,Pilot,d10012021,arjeO,interference,0.0,2.0,28.0,21.0,49.0,Lewb1n.jpg,Hinda1.jpg,58.0,66.0,1.0,,,0.0,49.0,21.0,0.977,-0.6091673321591548,-8.0,0.45658222298577467,0.8055622660322266,-0.3489800430464519
29,Pilot,d10012021,arjeO,interference,0.0,2.0,29.0,7.0,57.0,Pica1n.jpg,Lewc1n.jpg,67.0,22.0,1.0,,,1.0,7.0,57.0,0.964,-0.6422414133622621,45.0,0.8491847714130331,-1.113827970723259,1.963012742136292
30,Pilot,d10012021,arjeO,interference,1.0,2.0,30.0,52.0,41.0,Picaa1.jpg,Vincb1.jpg,67.0,46.0,0.0,,1.0,0.0,41.0,52.0,1.435,0.5560579902272418,21.0,0.8491847714130331,-0.0668878415839032,0.9160726129969362
31,Pilot,d10012021,arjeO,interference,0.0,2.0,31.0,30.0,25.0,Lasse1.jpg,Clifa1.jpg,67.0,65.0,1.0,,,0.0,25.0,30.0,1.002,-0.5455633298454868,2.0,0.8491847714130331,0.7619397606514201,0.08724501076161295
32,Pilot,d10012021,arjeO,interference,0.0,3.0,32.0,5.0,33.0,Kupb1n.jpg,Kupc1n.jpg,62.0,52.0,0.0,,,1.0,5.0,33.0,1.645,1.0903316096620523,10.0,0.6310722445090006,0.19484719070093573,0.43622505380806487
33,Pilot,d10012021,arjeO,interference,0.0,3.0,33.0,21.0,49.0,Lewb1n.jpg,Hinda1.jpg,58.0,66.0,0.0,,,0.0,49.0,21.0,0.855,-0.9195548634498543,-8.0,0.45658222298577467,0.8055622660322266,-0.3489800430464519
34,Pilot,d10012021,arjeO,interference,1.0,3.0,34.0,39.0,18.0,Dekb1n.jpg,Krasb1.jpg,63.0,57.0,0.0,,0.0,1.0,39.0,18.0,0.996,-0.5608282904007671,6.0,0.6746947498898072,0.4129597176049682,0.26173503228483896
35,Pilot,d10012021,arjeO,interference,0.0,3.0,35.0,45.0,40.0,Klia1n.jpg,Krab1n.jpg,45.0,29.0,0.0,,,0.0,40.0,45.0,1.193,-0.05962875216906368,16.0,-0.11051034696470968,-0.8084704330576135,0.6979600860929038
36,Pilot,d10012021,arjeO,interference,0.0,3.0,36.0,16.0,12.0,Lewa1n.jpg,Kupkc1.jpg,37.0,65.0,0.0,,,0.0,12.0,16.0,0.956,-0.6625946941026358,-28.0,-0.4594903900111616,0.7619397606514201,-1.2214301506625818
37,Pilot,d10012021,arjeO,interference,0.0,3.0,37.0,30.0,25.0,Lasse1.jpg,Clifa1.jpg,67.0,65.0,0.0,,,0.0,25.0,30.0,0.893,-0.822876779933079,2.0,0.8491847714130331,0.7619397606514201,0.08724501076161295
38,Pilot,d10012021,arjeO,interference,0.0,3.0,38.0,14.0,48.0,Kupkb1.jpg,Picb1n.jpg,43.0,58.0,0.0,,,0.0,48.0,14.0,1.229,0.031961011162618215,-15.0,-0.19775535772632266,0.45658222298577467,-0.6543375807120974
39,Pilot,d10012021,arjeO,interference,1.0,3.0,39.0,52.0,41.0,Picaa1.jpg,Vincb1.jpg,67.0,46.0,0.0,,1.0,0.0,41.0,52.0,1.082,-0.34203052244174925,21.0,0.8491847714130331,-0.0668878415839032,0.9160726129969362
40,Pilot,d10012021,arjeO,interference,1.0,3.0,40.0,10.0,4.0,Stera1.jpg,Mackb1.jpg,33.0,46.0,0.0,,1.0,0.0,4.0,10.0,1.015,-0.5124892486423798,-13.0,-0.6339804115343876,-0.0668878415839032,-0.5670925699504844
41,Pilot,d10012021,arjeO,interference,1.0,3.0,41.0,36.0,50.0,Gorkf1.jpg,Gorke1.jpg,26.0,33.0,0.0,,0.0,1.0,36.0,50.0,1.08,-0.34711884262684267,-7.0,-0.939337949200033,-0.6339804115343876,-0.30535753766564544
42,Pilot,d10012021,arjeO,interference,1.0,3.0,42.0,9.0,19.0,Lassc1.jpg,Macc1n.jpg,65.0,65.0,0.0,,1.0,0.0,19.0,9.0,0.949,-0.680403814750463,0.0,0.7619397606514201,0.7619397606514201,0.0
43,Pilot,d10012021,arjeO,interference,1.0,3.0,43.0,37.0,47.0,Mondb1.jpg,Kupkd1.jpg,63.0,55.0,0.0,,1.0,0.0,47.0,37.0,1.203,-0.03418715124359649,8.0,0.6746947498898072,0.3257147068433552,0.34898004304645197
44,Pilot,d10012021,arjeO,interference,0.0,3.0,44.0,8.0,35.0,Klina1.jpg,Wdeka1.jpg,57.0,35.0,0.0,,,1.0,8.0,35.0,0.902,-0.7999793391001584,22.0,0.4129597176049682,-0.5467354007727746,0.9596951183777428
45,Pilot,d10012021,arjeO,interference,1.0,3.0,45.0,56.0,13.0,Luisc1.jpg,Picak1.jpg,44.0,39.0,0.0,,0.0,1.0,56.0,13.0,0.97,-0.6269764528069818,5.0,-0.15413285234551619,-0.3722453792495486,0.2181125269040324
46,Pilot,d10012021,arjeO,interference,0.0,3.0,46.0,7.0,57.0,Pica1n.jpg,Lewc1n.jpg,67.0,22.0,0.0,,,1.0,7.0,57.0,0.922,-0.7490961372492241,45.0,0.8491847714130331,-1.113827970723259,1.963012742136292
47,Pilot,d10012021,arjeO,interference,1.0,3.0,47.0,32.0,22.0,Macka1.jpg,Macb1n.jpg,56.0,37.0,0.0,,0.0,1.0,32.0,22.0,1.081,-0.34457468253429624,19.0,0.36933721222416166,-0.4594903900111616,0.8288276022353233
48,Pilot,d10012021,A26v1,interference,1.0,1.0,0.0,37.0,7.0,Mondb1.jpg,Pica1n.jpg,50.0,85.0,1.0,,1.0,0.0,7.0,37.0,2.024,0.6811287259034204,-35.0,-0.5210807240217477,0.967721344611817,-1.4888020686335648
49,Pilot,d10012021,A26v1,interference,0.0,1.0,1.0,43.0,18.0,Picac1.jpg,Krasb1.jpg,36.0,64.0,0.0,,,1.0,43.0,18.0,1.903,0.505001410109508,-28.0,-1.1166015514751735,0.07444010343167823,-1.1910416549068517
50,Pilot,d10012021,A26v1,interference,1.0,1.0,2.0,31.0,3.0,Maca1n.jpg,Fogeg1.jpg,31.0,82.0,1.0,,1.0,0.0,3.0,31.0,1.92,0.5297465701797269,-51.0,-1.3292875612799684,0.8401097387289401,-2.1693973000089084
51,Pilot,d10012021,A26v1,interference,1.0,1.0,3.0,47.0,27.0,Kupkd1.jpg,Vinb1n.jpg,80.0,60.0,1.0,,1.0,1.0,47.0,27.0,3.254,2.4715138368663316,20.0,0.7550353348070221,-0.09570870441215773,0.8507440392191798
52,Pilot,d10012021,A26v1,interference,0.0,1.0,4.0,20.0,40.0,Gorc1n.jpg,Krab1n.jpg,45.0,76.0,0.0,,,0.0,40.0,20.0,1.716,0.23280464933709785,-31.0,-0.7337667338265426,0.5848865269631861,-1.3186532607897288
53,Pilot,d10012021,A26v1,interference,0.0,1.0,5.0,14.0,50.0,Kupkb1.jpg,Gorke1.jpg,83.0,50.0,0.0,,,0.0,50.0,14.0,1.378,-0.25918735676490556,33.0,0.8826469406898991,-0.5210807240217477,1.4037276647116468
54,Pilot,d10012021,A26v1,interference,1.0,1.0,6.0,34.0,4.0,Monb1n.jpg,Mackb1.jpg,82.0,65.0,1.0,,1.0,0.0,4.0,34.0,1.305,-0.36544598530172867,17.0,0.8401097387289401,0.11697730539263723,0.723132433336303
55,Pilot,d10012021,A26v1,interference,1.0,1.0,7.0,32.0,10.0,Macka1.jpg,Stera1.jpg,74.0,41.0,1.0,,0.0,1.0,32.0,10.0,2.157,0.8747232135116052,33.0,0.49981212304126815,-0.9039155416703786,1.4037276647116468
56,Pilot,d10012021,A26v1,interference,0.0,1.0,8.0,25.0,41.0,Clifa1.jpg,Vincb1.jpg,79.0,66.0,0.0,,,1.0,25.0,41.0,2.877,1.922753522367943,13.0,0.7124981328460631,0.1595145073535962,0.5529836254924669
57,Pilot,d10012021,A26v1,interference,1.0,1.0,9.0,12.0,26.0,Kupkc1.jpg,Clib1n.jpg,82.0,60.0,1.0,,0.0,1.0,12.0,26.0,1.289,-0.3887355477207584,22.0,0.8401097387289401,-0.09570870441215773,0.9358184431410979
58,Pilot,d10012021,A26v1,interference,0.0,1.0,10.0,45.0,29.0,Klia1n.jpg,Clifb1.jpg,39.0,61.0,0.0,,,0.0,29.0,45.0,3.318,2.564672086542451,-22.0,-0.9889899455922966,-0.05317150245119874,-0.9358184431410979
59,Pilot,d10012021,A26v1,interference,0.0,1.0,11.0,38.0,6.0,Lasc1n.jpg,Wdekc1.jpg,65.0,38.0,0.0,,,0.0,6.0,38.0,1.174,-0.5561292776075347,27.0,0.11697730539263723,-1.0315271475532555,1.1485044529458928
60,Pilot,d10012021,A26v1,interference,1.0,1.0,12.0,52.0,22.0,Picaa1.jpg,Macb1n.jpg,61.0,82.0,1.0,,0.0,1.0,52.0,22.0,1.376,-0.2620985520672843,-21.0,-0.05317150245119874,0.8401097387289401,-0.8932812411801389
61,Pilot,d10012021,A26v1,interference,0.0,1.0,13.0,55.0,15.0,Lewic1.jpg,Clia1n.jpg,71.0,38.0,0.0,,,0.0,15.0,55.0,1.525,-0.04521450204006977,33.0,0.3722005171583912,-1.0315271475532555,1.4037276647116466
62,Pilot,d10012021,A26v1,interference,0.0,1.0,14.0,49.0,48.0,Hinda1.jpg,Picb1n.jpg,80.0,77.0,0.0,,,0.0,48.0,49.0,1.477,-0.11508318929715873,3.0,0.7550353348070221,0.6274237289241451,0.127611605882877
63,Pilot,d10012021,A26v1,interference,1.0,1.0,15.0,2.0,8.0,Dekob1.jpg,Klina1.jpg,78.0,50.0,1.0,,0.0,1.0,2.0,8.0,1.688,0.19204791510379576,28.0,0.6699609308851041,-0.5210807240217477,1.1910416549068517
64,Pilot,d10012021,A26v1,interference,0.0,2.0,16.0,43.0,18.0,Picac1.jpg,Krasb1.jpg,36.0,64.0,1.0,,,1.0,43.0,18.0,1.113,-0.6449207343300855,-28.0,-1.1166015514751735,0.07444010343167823,-1.1910416549068517
65,Pilot,d10012021,A26v1,interference,0.0,2.0,17.0,49.0,48.0,Hinda1.jpg,Picb1n.jpg,80.0,77.0,1.0,,,0.0,48.0,49.0,1.848,0.4249435392940934,3.0,0.7550353348070221,0.6274237289241451,0.127611605882877
66,Pilot,d10012021,A26v1,interference,0.0,2.0,18.0,38.0,6.0,Lasc1n.jpg,Wdekc1.jpg,65.0,38.0,1.0,,,0.0,6.0,38.0,1.466,-0.13109476346024185,27.0,0.11697730539263723,-1.0315271475532555,1.1485044529458928
67,Pilot,d10012021,A26v1,interference,1.0,2.0,19.0,32.0,10.0,Macka1.jpg,Stera1.jpg,74.0,41.0,0.0,,0.0,1.0,32.0,10.0,2.222,0.9693370608389134,33.0,0.49981212304126815,-0.9039155416703786,1.4037276647116468
68,Pilot,d10012021,A26v1,interference,0.0,2.0,20.0,14.0,50.0,Kupkb1.jpg,Gorke1.jpg,83.0,50.0,1.0,,,0.0,50.0,14.0,2.073,0.7524530108116989,33.0,0.8826469406898991,-0.5210807240217477,1.4037276647116468
69,Pilot,d10012021,A26v1,interference,1.0,2.0,21.0,34.0,4.0,Monb1n.jpg,Mackb1.jpg,82.0,65.0,0.0,,1.0,0.0,4.0,34.0,1.482,-0.10780520104121209,17.0,0.8401097387289401,0.11697730539263723,0.723132433336303
70,Pilot,d10012021,A26v1,interference,1.0,2.0,22.0,12.0,26.0,Kupkc1.jpg,Clib1n.jpg,82.0,60.0,0.0,,0.0,1.0,12.0,26.0,1.385,-0.24899817320657985,22.0,0.8401097387289401,-0.09570870441215773,0.9358184431410979
71,Pilot,d10012021,A26v1,interference,1.0,2.0,23.0,47.0,27.0,Kupkd1.jpg,Vinb1n.jpg,80.0,60.0,0.0,,1.0,1.0,47.0,27.0,1.696,0.20369269631331063,20.0,0.7550353348070221,-0.09570870441215773,0.8507440392191798
72,Pilot,d10012021,A26v1,interference,1.0,2.0,24.0,2.0,8.0,Dekob1.jpg,Klina1.jpg,78.0,50.0,0.0,,0.0,1.0,2.0,8.0,1.214,-0.4979053715599603,28.0,0.6699609308851041,-0.5210807240217477,1.1910416549068517
73,Pilot,d10012021,A26v1,interference,0.0,2.0,25.0,20.0,40.0,Gorc1n.jpg,Krab1n.jpg,45.0,76.0,1.0,,,0.0,40.0,20.0,1.184,-0.5415733010956411,-31.0,-0.7337667338265426,0.5848865269631861,-1.3186532607897288
74,Pilot,d10012021,A26v1,interference,1.0,2.0,26.0,37.0,7.0,Mondb1.jpg,Pica1n.jpg,50.0,85.0,0.0,,1.0,0.0,7.0,37.0,2.082,0.7655533896724029,-35.0,-0.5210807240217477,0.967721344611817,-1.4888020686335648
75,Pilot,d10012021,A26v1,interference,1.0,2.0,27.0,52.0,22.0,Picaa1.jpg,Macb1n.jpg,61.0,82.0,0.0,,0.0,1.0,52.0,22.0,3.28,2.5093593757972545,-21.0,-0.05317150245119874,0.8401097387289401,-0.8932812411801389
76,Pilot,d10012021,A26v1,interference,1.0,2.0,28.0,31.0,3.0,Maca1n.jpg,Fogeg1.jpg,31.0,82.0,0.0,,1.0,0.0,3.0,31.0,1.607,0.07414450535745776,-51.0,-1.3292875612799684,0.8401097387289401,-2.1693973000089084
77,Pilot,d10012021,A26v1,interference,0.0,2.0,29.0,55.0,15.0,Lewic1.jpg,Clia1n.jpg,71.0,38.0,1.0,,,0.0,15.0,55.0,1.426,-0.18931866950781626,33.0,0.3722005171583912,-1.0315271475532555,1.4037276647116466
78,Pilot,d10012021,A26v1,interference,0.0,2.0,30.0,25.0,41.0,Clifa1.jpg,Vincb1.jpg,79.0,66.0,1.0,,,1.0,25.0,41.0,2.986,2.0814136663475837,13.0,0.7124981328460631,0.1595145073535962,0.5529836254924669
79,Pilot,d10012021,A26v1,interference,0.0,2.0,31.0,45.0,29.0,Klia1n.jpg,Clifb1.jpg,39.0,61.0,1.0,,,0.0,29.0,45.0,1.854,0.43367712520122953,-22.0,-0.9889899455922966,-0.05317150245119874,-0.9358184431410979
80,Pilot,d10012021,A26v1,interference,0.0,3.0,32.0,55.0,15.0,Lewic1.jpg,Clia1n.jpg,71.0,38.0,0.0,,,0.0,15.0,55.0,1.274,-0.4105695124885987,33.0,0.3722005171583912,-1.0315271475532555,1.4037276647116466
81,Pilot,d10012021,A26v1,interference,0.0,3.0,33.0,38.0,6.0,Lasc1n.jpg,Wdekc1.jpg,65.0,38.0,0.0,,,0.0,6.0,38.0,0.829,-1.0583104672678634,27.0,0.11697730539263723,-1.0315271475532555,1.1485044529458928
82,Pilot,d10012021,A26v1,interference,1.0,3.0,34.0,31.0,3.0,Maca1n.jpg,Fogeg1.jpg,31.0,82.0,0.0,,1.0,0.0,3.0,31.0,1.544,-0.017558146667471766,-51.0,-1.3292875612799684,0.8401097387289401,-2.1693973000089084
83,Pilot,d10012021,A26v1,interference,0.0,3.0,35.0,14.0,50.0,Kupkb1.jpg,Gorke1.jpg,83.0,50.0,0.0,,,0.0,50.0,14.0,1.093,-0.6740326873538727,33.0,0.8826469406898991,-0.5210807240217477,1.4037276647116468
84,Pilot,d10012021,A26v1,interference,1.0,3.0,36.0,2.0,8.0,Dekob1.jpg,Klina1.jpg,78.0,50.0,0.0,,0.0,1.0,2.0,8.0,1.141,-0.6041640000967834,28.0,0.6699609308851041,-0.5210807240217477,1.1910416549068517
85,Pilot,d10012021,A26v1,interference,0.0,3.0,37.0,20.0,40.0,Gorc1n.jpg,Krab1n.jpg,45.0,76.0,0.0,,,0.0,40.0,20.0,1.06,-0.7220674098431213,-31.0,-0.7337667338265426,0.5848865269631861,-1.3186532607897288
86,Pilot,d10012021,A26v1,interference,1.0,3.0,38.0,12.0,26.0,Kupkc1.jpg,Clib1n.jpg,82.0,60.0,0.0,,0.0,1.0,12.0,26.0,1.102,-0.6609323084931683,22.0,0.8401097387289401,-0.09570870441215773,0.9358184431410979
87,Pilot,d10012021,A26v1,interference,1.0,3.0,39.0,52.0,22.0,Picaa1.jpg,Macb1n.jpg,61.0,82.0,0.0,,0.0,1.0,52.0,22.0,0.843,-1.0379321001512123,-21.0,-0.05317150245119874,0.8401097387289401,-0.8932812411801389
88,Pilot,d10012021,A26v1,interference,0.0,3.0,40.0,43.0,18.0,Picac1.jpg,Krasb1.jpg,36.0,64.0,0.0,,,1.0,43.0,18.0,0.668,-1.29266168910935,-28.0,-1.1166015514751735,0.07444010343167823,-1.1910416549068517
89,Pilot,d10012021,A26v1,interference,1.0,3.0,41.0,37.0,7.0,Mondb1.jpg,Pica1n.jpg,50.0,85.0,0.0,,1.0,0.0,7.0,37.0,0.782,-1.1267235568737632,-35.0,-0.5210807240217477,0.967721344611817,-1.4888020686335648
90,Pilot,d10012021,A26v1,interference,1.0,3.0,42.0,47.0,27.0,Kupkd1.jpg,Vinb1n.jpg,80.0,60.0,0.0,,1.0,1.0,47.0,27.0,0.859,-1.0146425377321826,20.0,0.7550353348070221,-0.09570870441215773,0.8507440392191798
91,Pilot,d10012021,A26v1,interference,1.0,3.0,43.0,32.0,10.0,Macka1.jpg,Stera1.jpg,74.0,41.0,0.0,,0.0,1.0,32.0,10.0,0.64,-1.333418423342652,33.0,0.49981212304126815,-0.9039155416703786,1.4037276647116468
92,Pilot,d10012021,A26v1,interference,0.0,3.0,44.0,45.0,29.0,Klia1n.jpg,Clifb1.jpg,39.0,61.0,0.0,,,0.0,29.0,45.0,0.839,-1.0437544907559697,-22.0,-0.9889899455922966,-0.05317150245119874,-0.9358184431410979
93,Pilot,d10012021,A26v1,interference,1.0,3.0,45.0,34.0,4.0,Monb1n.jpg,Mackb1.jpg,82.0,65.0,0.0,,1.0,0.0,4.0,34.0,0.851,-1.0262873189416974,17.0,0.8401097387289401,0.11697730539263723,0.723132433336303
94,Pilot,d10012021,A26v1,interference,0.0,3.0,46.0,49.0,48.0,Hinda1.jpg,Picb1n.jpg,80.0,77.0,0.0,,,0.0,48.0,49.0,0.766,-1.150013119292793,3.0,0.7550353348070221,0.6274237289241451,0.127611605882877
95,Pilot,d10012021,A26v1,interference,0.0,3.0,47.0,25.0,41.0,Clifa1.jpg,Vincb1.jpg,79.0,66.0,0.0,,,1.0,25.0,41.0,1.101,-0.6623879061443578,13.0,0.7124981328460631,0.1595145073535962,0.5529836254924669
96,Pilot,d10012021,eoRdQ,interference,0.0,1.0,0.0,34.0,45.0,Monb1n.jpg,Klia1n.jpg,69.0,72.0,0.0,,,0.0,45.0,34.0,1.531,0.8687252393904709,-3.0,-0.01609871153918791,0.14488840385269272,-0.16098711539188063
97,Pilot,d10012021,eoRdQ,interference,0.0,1.0,1.0,56.0,38.0,Luisc1.jpg,Lasc1n.jpg,58.0,62.0,0.0,,,1.0,56.0,38.0,1.924,1.7384186489251439,-4.0,-0.606384801309417,-0.39173531412024276,-0.2146494871891742
98,Pilot,d10012021,eoRdQ,interference,1.0,1.0,2.0,48.0,43.0,Picb1n.jpg,Picac1.jpg,80.0,63.0,1.0,,0.0,1.0,48.0,43.0,0.902,-0.5232268079309268,17.0,0.574187378231041,-0.3380729423229492,0.9122603205539903
99,Pilot,d10012021,eoRdQ,interference,0.0,1.0,3.0,2.0,52.0,Dekob1.jpg,Picaa1.jpg,66.0,68.0,0.0,,,0.0,52.0,2.0,1.695,1.2316507334456528,-2.0,-0.17708582693106856,-0.06976108333648146,-0.1073247435945871
100,Pilot,d10012021,eoRdQ,interference,0.0,1.0,4.0,8.0,55.0,Klina1.jpg,Lewic1.jpg,62.0,78.0,0.0,,,0.0,55.0,8.0,1.029,-0.24218084607112175,-16.0,-0.39173531412024276,0.466862634636454,-0.8585979487566968
101,Pilot,d10012021,eoRdQ,interference,0.0,1.0,5.0,33.0,10.0,Kupc1n.jpg,Stera1.jpg,71.0,68.0,0.0,,,1.0,33.0,10.0,0.818,-0.7091154756177274,3.0,0.09122603205539918,-0.06976108333648146,0.16098711539188065
102,Pilot,d10012021,eoRdQ,interference,0.0,1.0,6.0,35.0,16.0,Wdeka1.jpg,Lewa1n.jpg,59.0,76.0,0.0,,,,,,,,-17.0,-0.5527224295121234,0.3595378910418669,-0.9122603205539903
103,Pilot,d10012021,eoRdQ,interference,0.0,1.0,6.0,35.0,16.0,Wdeka1.jpg,Lewa1n.jpg,59.0,76.0,0.0,,,1.0,35.0,16.0,1.362,0.4947349436872657,-17.0,-0.5527224295121234,0.3595378910418669,-0.9122603205539903
104,Pilot,d10012021,eoRdQ,interference,1.0,1.0,7.0,14.0,18.0,Kupkb1.jpg,Krasb1.jpg,83.0,67.0,1.0,,0.0,1.0,14.0,18.0,0.791,-0.7688654045170558,16.0,0.7351744936229218,-0.123423455133775,0.8585979487566968
105,Pilot,d10012021,eoRdQ,interference,1.0,1.0,8.0,51.0,31.0,Gora1n.jpg,Maca1n.jpg,75.0,74.0,1.0,,1.0,0.0,31.0,51.0,1.875,1.6299835927745105,1.0,0.30587551924457335,0.2522131474472798,0.05366237179729355
106,Pilot,d10012021,eoRdQ,interference,0.0,1.0,9.0,32.0,1.0,Macka1.jpg,Lewia1.jpg,77.0,70.0,0.0,,,0.0,1.0,32.0,1.57,0.955030692245057,7.0,0.41320026283916045,0.03756366025810563,0.3756366025810548
107,Pilot,d10012021,eoRdQ,interference,1.0,1.0,10.0,41.0,9.0,Vincb1.jpg,Lassc1.jpg,70.0,78.0,1.0,,0.0,1.0,41.0,9.0,2.399,2.789574805487408,-8.0,0.03756366025810563,0.466862634636454,-0.42929897437834835
108,Pilot,d10012021,eoRdQ,interference,1.0,1.0,11.0,58.0,40.0,Mackc1.jpg,Krab1n.jpg,77.0,74.0,1.0,,1.0,,,,,,3.0,0.41320026283916045,0.2522131474472798,0.16098711539188065
109,Pilot,d10012021,eoRdQ,interference,1.0,1.0,11.0,58.0,40.0,Mackc1.jpg,Krab1n.jpg,77.0,74.0,1.0,,1.0,1.0,58.0,40.0,0.609,-1.1716241845051234,3.0,0.41320026283916045,0.2522131474472798,0.16098711539188065
110,Pilot,d10012021,eoRdQ,interference,1.0,1.0,12.0,49.0,21.0,Hinda1.jpg,Lewb1n.jpg,79.0,86.0,1.0,,1.0,0.0,21.0,49.0,1.721,1.2891877020153768,-7.0,0.5205250064337476,0.8961616090148024,-0.3756366025810548
111,Pilot,d10012021,eoRdQ,interference,0.0,1.0,13.0,57.0,53.0,Lewc1n.jpg,Gorka1.jpg,66.0,61.0,0.0,,,1.0,57.0,53.0,1.091,-0.10497730563562614,5.0,-0.17708582693106856,-0.44539768591753626,0.2683118589864677
112,Pilot,d10012021,eoRdQ,interference,1.0,1.0,14.0,39.0,4.0,Dekb1n.jpg,Mackb1.jpg,78.0,85.0,1.0,,0.0,1.0,39.0,4.0,1.559,0.9306881286194043,-7.0,0.466862634636454,0.8424992372175089,-0.37563660258105486
113,Pilot,d10012021,eoRdQ,interference,1.0,1.0,15.0,29.0,37.0,Clifb1.jpg,Mondb1.jpg,80.0,84.0,1.0,,1.0,0.0,37.0,29.0,2.114,2.1588811115500492,-4.0,0.574187378231041,0.7888368654202152,-0.2146494871891742
114,Pilot,d10012021,eoRdQ,interference,0.0,2.0,16.0,35.0,16.0,Wdeka1.jpg,Lewa1n.jpg,59.0,76.0,1.0,,,1.0,35.0,16.0,1.548,0.9063455649937521,-17.0,-0.5527224295121234,0.3595378910418669,-0.9122603205539903
115,Pilot,d10012021,eoRdQ,interference,1.0,2.0,17.0,29.0,37.0,Clifb1.jpg,Mondb1.jpg,80.0,84.0,0.0,,1.0,0.0,37.0,29.0,1.534,0.8753641203792853,-4.0,0.574187378231041,0.7888368654202152,-0.2146494871891742
116,Pilot,d10012021,eoRdQ,interference,0.0,2.0,18.0,57.0,53.0,Lewc1n.jpg,Gorka1.jpg,66.0,61.0,1.0,,,1.0,57.0,53.0,0.675,-1.0255688027512087,5.0,-0.17708582693106856,-0.44539768591753626,0.2683118589864677
117,Pilot,d10012021,eoRdQ,interference,1.0,2.0,19.0,58.0,40.0,Mackc1.jpg,Krab1n.jpg,77.0,74.0,0.0,,1.0,1.0,58.0,40.0,1.813,1.492780052339015,3.0,0.41320026283916045,0.2522131474472798,0.16098711539188065
118,Pilot,d10012021,eoRdQ,interference,1.0,2.0,20.0,39.0,4.0,Dekb1n.jpg,Mackb1.jpg,78.0,85.0,0.0,,0.0,1.0,39.0,4.0,0.729,-0.9060689449525514,-7.0,0.466862634636454,0.8424992372175089,-0.37563660258105486
119,Pilot,d10012021,eoRdQ,interference,0.0,2.0,21.0,2.0,52.0,Dekob1.jpg,Picaa1.jpg,66.0,68.0,1.0,,,0.0,52.0,2.0,0.873,-0.5874026574894651,-2.0,-0.17708582693106856,-0.06976108333648146,-0.1073247435945871
120,Pilot,d10012021,eoRdQ,interference,0.0,2.0,22.0,56.0,38.0,Luisc1.jpg,Lasc1n.jpg,58.0,62.0,1.0,,,1.0,56.0,38.0,1.027,-0.2466067667303313,-4.0,-0.606384801309417,-0.39173531412024276,-0.2146494871891742
121,Pilot,d10012021,eoRdQ,interference,1.0,2.0,23.0,48.0,43.0,Picb1n.jpg,Picac1.jpg,80.0,63.0,0.0,,0.0,1.0,48.0,43.0,0.887,-0.5564212128749983,17.0,0.574187378231041,-0.3380729423229492,0.9122603205539903
122,Pilot,d10012021,eoRdQ,interference,1.0,2.0,24.0,51.0,31.0,Gora1n.jpg,Maca1n.jpg,75.0,74.0,0.0,,1.0,0.0,31.0,51.0,1.048,-0.2001345998086309,1.0,0.30587551924457335,0.2522131474472798,0.05366237179729355
123,Pilot,d10012021,eoRdQ,interference,0.0,2.0,25.0,34.0,45.0,Monb1n.jpg,Klia1n.jpg,69.0,72.0,1.0,,,0.0,45.0,34.0,1.018,-0.26652340969677396,-3.0,-0.01609871153918791,0.14488840385269272,-0.16098711539188063
124,Pilot,d10012021,eoRdQ,interference,0.0,2.0,26.0,32.0,1.0,Macka1.jpg,Lewia1.jpg,77.0,70.0,1.0,,,0.0,1.0,32.0,1.443,0.6739847303852518,7.0,0.41320026283916045,0.03756366025810563,0.3756366025810548
125,Pilot,d10012021,eoRdQ,interference,1.0,2.0,27.0,41.0,9.0,Vincb1.jpg,Lassc1.jpg,70.0,78.0,0.0,,0.0,1.0,41.0,9.0,1.608,1.0391231847700382,-8.0,0.03756366025810563,0.466862634636454,-0.42929897437834835
126,Pilot,d10012021,eoRdQ,interference,1.0,2.0,28.0,14.0,18.0,Kupkb1.jpg,Krasb1.jpg,83.0,67.0,0.0,,0.0,1.0,14.0,18.0,0.952,-0.41257879145068865,16.0,0.7351744936229218,-0.123423455133775,0.8585979487566968
127,Pilot,d10012021,eoRdQ,interference,0.0,2.0,29.0,33.0,10.0,Kupc1n.jpg,Stera1.jpg,71.0,68.0,1.0,,,1.0,33.0,10.0,0.755,-0.8485319763828275,3.0,0.09122603205539918,-0.06976108333648146,0.16098711539188065
128,Pilot,d10012021,eoRdQ,interference,1.0,2.0,30.0,49.0,21.0,Hinda1.jpg,Lewb1n.jpg,79.0,86.0,0.0,,1.0,0.0,21.0,49.0,0.933,-0.45462503771317897,-7.0,0.5205250064337476,0.8961616090148024,-0.3756366025810548
129,Pilot,d10012021,eoRdQ,interference,0.0,2.0,31.0,8.0,55.0,Klina1.jpg,Lewic1.jpg,62.0,78.0,1.0,,,0.0,55.0,8.0,1.466,0.7248828179661612,-16.0,-0.39173531412024276,0.466862634636454,-0.8585979487566968
130,Pilot,d10012021,eoRdQ,interference,0.0,3.0,32.0,34.0,45.0,Monb1n.jpg,Klia1n.jpg,69.0,72.0,0.0,,,0.0,45.0,34.0,1.016,-0.2709493303559835,-3.0,-0.01609871153918791,0.14488840385269272,-0.16098711539188063
131,Pilot,d10012021,eoRdQ,interference,1.0,3.0,33.0,48.0,43.0,Picb1n.jpg,Picac1.jpg,80.0,63.0,0.0,,0.0,1.0,48.0,43.0,0.643,-1.0963835332985612,17.0,0.574187378231041,-0.3380729423229492,0.9122603205539903
132,Pilot,d10012021,eoRdQ,interference,0.0,3.0,34.0,57.0,53.0,Lewc1n.jpg,Gorka1.jpg,66.0,61.0,0.0,,,1.0,57.0,53.0,0.685,-1.003439199455161,5.0,-0.17708582693106856,-0.44539768591753626,0.2683118589864677
133,Pilot,d10012021,eoRdQ,interference,0.0,3.0,35.0,32.0,1.0,Macka1.jpg,Lewia1.jpg,77.0,70.0,0.0,,,0.0,1.0,32.0,0.54,-1.3243184472478522,7.0,0.41320026283916045,0.03756366025810563,0.3756366025810548
134,Pilot,d10012021,eoRdQ,interference,0.0,3.0,36.0,8.0,55.0,Klina1.jpg,Lewic1.jpg,62.0,78.0,0.0,,,0.0,55.0,8.0,1.257,0.26237410907876485,-16.0,-0.39173531412024276,0.466862634636454,-0.8585979487566968
135,Pilot,d10012021,eoRdQ,interference,1.0,3.0,37.0,14.0,18.0,Kupkb1.jpg,Krasb1.jpg,83.0,67.0,0.0,,0.0,1.0,14.0,18.0,0.636,-1.1118742556057946,16.0,0.7351744936229218,-0.123423455133775,0.8585979487566968
136,Pilot,d10012021,eoRdQ,interference,1.0,3.0,38.0,29.0,37.0,Clifb1.jpg,Mondb1.jpg,80.0,84.0,0.0,,1.0,0.0,37.0,29.0,0.83,-0.6825599516624701,-4.0,0.574187378231041,0.7888368654202152,-0.2146494871891742
137,Pilot,d10012021,eoRdQ,interference,1.0,3.0,39.0,41.0,9.0,Vincb1.jpg,Lassc1.jpg,70.0,78.0,0.0,,0.0,1.0,41.0,9.0,0.991,-0.3262733385961027,-8.0,0.03756366025810563,0.466862634636454,-0.42929897437834835
138,Pilot,d10012021,eoRdQ,interference,0.0,3.0,40.0,33.0,10.0,Kupc1n.jpg,Stera1.jpg,71.0,68.0,0.0,,,1.0,33.0,10.0,0.661,-1.0565502473656754,3.0,0.09122603205539918,-0.06976108333648146,0.16098711539188065
139,Pilot,d10012021,eoRdQ,interference,1.0,3.0,41.0,51.0,31.0,Gora1n.jpg,Maca1n.jpg,75.0,74.0,0.0,,1.0,0.0,31.0,51.0,0.843,-0.6537914673776081,1.0,0.30587551924457335,0.2522131474472798,0.05366237179729355
140,Pilot,d10012021,eoRdQ,interference,0.0,3.0,42.0,56.0,38.0,Luisc1.jpg,Lasc1n.jpg,58.0,62.0,0.0,,,1.0,56.0,38.0,0.68,-1.0145040011031847,-4.0,-0.606384801309417,-0.39173531412024276,-0.2146494871891742
141,Pilot,d10012021,eoRdQ,interference,0.0,3.0,43.0,35.0,16.0,Wdeka1.jpg,Lewa1n.jpg,59.0,76.0,0.0,,,1.0,35.0,16.0,1.0,-0.3063566956296598,-17.0,-0.5527224295121234,0.3595378910418669,-0.9122603205539903
142,Pilot,d10012021,eoRdQ,interference,0.0,3.0,44.0,2.0,52.0,Dekob1.jpg,Picaa1.jpg,66.0,68.0,0.0,,,0.0,52.0,2.0,0.86,-0.6161711417743271,-2.0,-0.17708582693106856,-0.06976108333648146,-0.1073247435945871
143,Pilot,d10012021,eoRdQ,interference,1.0,3.0,45.0,49.0,21.0,Hinda1.jpg,Lewb1n.jpg,79.0,86.0,0.0,,1.0,0.0,21.0,49.0,0.735,-0.8927911829749228,-7.0,0.5205250064337476,0.8961616090148024,-0.3756366025810548
144,Pilot,d10012021,eoRdQ,interference,1.0,3.0,46.0,39.0,4.0,Dekb1n.jpg,Mackb1.jpg,78.0,85.0,0.0,,0.0,1.0,39.0,4.0,0.77,-0.815337571438756,-7.0,0.466862634636454,0.8424992372175089,-0.37563660258105486
145,Pilot,d10012021,eoRdQ,interference,1.0,3.0,47.0,58.0,40.0,Mackc1.jpg,Krab1n.jpg,77.0,74.0,0.0,,1.0,1.0,58.0,40.0,1.199,0.13402240996168882,3.0,0.41320026283916045,0.2522131474472798,0.16098711539188065
146,Pilot,d10012021,lPMys,interference,1.0,1.0,0.0,32.0,57.0,Macka1.jpg,Lewc1n.jpg,60.0,43.0,1.0,,1.0,1.0,32.0,57.0,3.57,2.4011454988743415,17.0,0.22470281371331025,-0.8615382762752041,1.0862410899885142
147,Pilot,d10012021,lPMys,interference,0.0,1.0,1.0,31.0,10.0,Maca1n.jpg,Stera1.jpg,59.0,48.0,0.0,,,1.0,31.0,10.0,1.806,0.5055007805902391,11.0,0.16080627900810354,-0.5420556027491704,0.7028618817572739
148,Pilot,d10012021,lPMys,interference,0.0,1.0,2.0,56.0,22.0,Luisc1.jpg,Macb1n.jpg,54.0,41.0,0.0,,,0.0,22.0,56.0,0.93,-0.4358738074011858,13.0,-0.15867639451793009,-0.9893313456856175,0.8306549511676875
149,Pilot,d10012021,lPMys,interference,1.0,1.0,3.0,47.0,4.0,Kupkd1.jpg,Mackb1.jpg,58.0,45.0,1.0,,0.0,1.0,47.0,4.0,0.73,-0.6507995124220591,13.0,0.09690974430289681,-0.7337452068647906,0.8306549511676874
150,Pilot,d10012021,lPMys,interference,1.0,1.0,4.0,3.0,41.0,Fogeg1.jpg,Vincb1.jpg,56.0,62.0,1.0,,1.0,0.0,41.0,3.0,5.483,4.456909867398993,-6.0,-0.030883325107516645,0.3524958831237237,-0.38337920823124033
151,Pilot,d10012021,lPMys,interference,0.0,1.0,5.0,2.0,13.0,Dekob1.jpg,Picak1.jpg,57.0,60.0,0.0,,,0.0,13.0,2.0,1.008,-0.3520527824430453,-3.0,0.03301320959769008,0.22470281371331025,-0.19168960411562017
152,Pilot,d10012021,lPMys,interference,0.0,1.0,6.0,24.0,38.0,Dekoa1.jpg,Lasc1n.jpg,55.0,57.0,0.0,,,1.0,24.0,38.0,0.73,-0.6507995124220591,-2.0,-0.09477985981272337,0.03301320959769008,-0.12779306941041346
153,Pilot,d10012021,lPMys,interference,1.0,1.0,7.0,1.0,34.0,Lewia1.jpg,Monb1n.jpg,64.0,46.0,1.0,,0.0,1.0,1.0,34.0,0.772,-0.6056651143676758,18.0,0.48028895253413717,-0.6698486721595839,1.1501376246937212
154,Pilot,d10012021,lPMys,interference,0.0,1.0,8.0,27.0,28.0,Vinb1n.jpg,Krasa1.jpg,53.0,55.0,0.0,,,0.0,28.0,27.0,1.323,-0.013544797035169946,-2.0,-0.22257292922313682,-0.09477985981272337,-0.12779306941041346
155,Pilot,d10012021,lPMys,interference,1.0,1.0,9.0,12.0,43.0,Kupkc1.jpg,Picac1.jpg,63.0,67.0,1.0,,1.0,0.0,43.0,12.0,1.356,0.021917944293274295,-4.0,0.41639241782893044,0.6719785566497574,-0.2555861388208269
156,Pilot,d10012021,lPMys,interference,0.0,1.0,10.0,55.0,49.0,Lewic1.jpg,Hinda1.jpg,50.0,43.0,0.0,,,1.0,55.0,49.0,1.551,0.23147050668862557,7.0,-0.414262533338757,-0.8615382762752041,0.44727574293644706
157,Pilot,d10012021,lPMys,interference,1.0,1.0,11.0,45.0,37.0,Klia1n.jpg,Mondb1.jpg,50.0,62.0,1.0,,1.0,0.0,37.0,45.0,0.906,-0.46166489200369065,-12.0,-0.414262533338757,0.3524958831237237,-0.7667584164624808
158,Pilot,d10012021,lPMys,interference,0.0,1.0,12.0,33.0,7.0,Kupc1n.jpg,Pica1n.jpg,60.0,68.0,0.0,,,0.0,7.0,33.0,1.338,0.0025746308413956837,-8.0,0.22470281371331025,0.7358750913549641,-0.5111722776416538
159,Pilot,d10012021,lPMys,interference,1.0,1.0,13.0,59.0,25.0,Kraa1n.jpg,Clifa1.jpg,60.0,68.0,1.0,,0.0,0.0,25.0,59.0,2.332,1.0707553847951357,-8.0,0.22470281371331025,0.7358750913549641,-0.5111722776416538
160,Pilot,d10012021,lPMys,interference,0.0,1.0,14.0,46.0,0.0,Deka1n.jpg,Gorkc1.jpg,60.0,59.0,0.0,,,0.0,0.0,46.0,1.813,0.5130231802659696,1.0,0.22470281371331025,0.16080627900810354,0.0638965347052067
161,Pilot,d10012021,lPMys,interference,1.0,1.0,15.0,23.0,19.0,Lewib1.jpg,Macc1n.jpg,61.0,62.0,1.0,,0.0,0.0,19.0,23.0,1.594,0.27767953326811345,-1.0,0.288599348418517,0.3524958831237237,-0.06389653470520673
162,Pilot,d10012021,lPMys,interference,1.0,2.0,16.0,3.0,41.0,Fogeg1.jpg,Vincb1.jpg,56.0,62.0,0.0,,1.0,0.0,41.0,3.0,2.308,1.0449643001926308,-6.0,-0.030883325107516645,0.3524958831237237,-0.38337920823124033
163,Pilot,d10012021,lPMys,interference,0.0,2.0,17.0,33.0,7.0,Kupc1n.jpg,Pica1n.jpg,60.0,68.0,1.0,,,0.0,7.0,33.0,0.854,-0.5175455753091177,-8.0,0.22470281371331025,0.7358750913549641,-0.5111722776416538
164,Pilot,d10012021,lPMys,interference,1.0,2.0,18.0,59.0,25.0,Kraa1n.jpg,Clifa1.jpg,60.0,68.0,0.0,,0.0,0.0,25.0,59.0,2.365,1.1062181261235802,-8.0,0.22470281371331025,0.7358750913549641,-0.5111722776416538
165,Pilot,d10012021,lPMys,interference,1.0,2.0,19.0,45.0,37.0,Klia1n.jpg,Mondb1.jpg,50.0,62.0,0.0,,1.0,0.0,37.0,45.0,0.919,-0.44769472117733383,-12.0,-0.414262533338757,0.3524958831237237,-0.7667584164624808
166,Pilot,d10012021,lPMys,interference,0.0,2.0,20.0,24.0,38.0,Dekoa1.jpg,Lasc1n.jpg,55.0,57.0,1.0,,,1.0,24.0,38.0,0.682,-0.7023816816270687,-2.0,-0.09477985981272337,0.03301320959769008,-0.12779306941041346
167,Pilot,d10012021,lPMys,interference,0.0,2.0,21.0,2.0,13.0,Dekob1.jpg,Picak1.jpg,57.0,60.0,1.0,,,0.0,13.0,2.0,1.039,-0.31873929816481,-3.0,0.03301320959769008,0.22470281371331025,-0.19168960411562017
168,Pilot,d10012021,lPMys,interference,1.0,2.0,22.0,47.0,4.0,Kupkd1.jpg,Mackb1.jpg,58.0,45.0,0.0,,0.0,1.0,47.0,4.0,1.273,-0.0672762232903883,13.0,0.09690974430289681,-0.7337452068647906,0.8306549511676874
169,Pilot,d10012021,lPMys,interference,0.0,2.0,23.0,46.0,0.0,Deka1n.jpg,Gorkc1.jpg,60.0,59.0,1.0,,,0.0,0.0,46.0,0.731,-0.6497248838969548,1.0,0.22470281371331025,0.16080627900810354,0.0638965347052067
170,Pilot,d10012021,lPMys,interference,0.0,2.0,24.0,56.0,22.0,Luisc1.jpg,Macb1n.jpg,54.0,41.0,1.0,,,0.0,22.0,56.0,0.944,-0.4208290080497248,13.0,-0.15867639451793009,-0.9893313456856175,0.8306549511676875
171,Pilot,d10012021,lPMys,interference,0.0,2.0,25.0,31.0,10.0,Maca1n.jpg,Stera1.jpg,59.0,48.0,1.0,,,1.0,31.0,10.0,1.885,0.590396434073484,11.0,0.16080627900810354,-0.5420556027491704,0.7028618817572739
172,Pilot,d10012021,lPMys,interference,1.0,2.0,26.0,12.0,43.0,Kupkc1.jpg,Picac1.jpg,63.0,67.0,0.0,,1.0,0.0,43.0,12.0,2.29,1.0256209867407524,-4.0,0.41639241782893044,0.6719785566497574,-0.2555861388208269
173,Pilot,d10012021,lPMys,interference,1.0,2.0,27.0,1.0,34.0,Lewia1.jpg,Monb1n.jpg,64.0,46.0,0.0,,0.0,1.0,1.0,34.0,1.132,-0.218798845330104,18.0,0.48028895253413717,-0.6698486721595839,1.1501376246937212
174,Pilot,d10012021,lPMys,interference,0.0,2.0,28.0,27.0,28.0,Vinb1n.jpg,Krasa1.jpg,53.0,55.0,1.0,,,0.0,28.0,27.0,0.868,-0.5025007759576566,-2.0,-0.22257292922313682,-0.09477985981272337,-0.12779306941041346
175,Pilot,d10012021,lPMys,interference,1.0,2.0,29.0,23.0,19.0,Lewib1.jpg,Macc1n.jpg,61.0,62.0,0.0,,0.0,0.0,19.0,23.0,1.661,0.34967964445010596,-1.0,0.288599348418517,0.3524958831237237,-0.06389653470520673
176,Pilot,d10012021,lPMys,interference,1.0,2.0,30.0,32.0,57.0,Macka1.jpg,Lewc1n.jpg,60.0,43.0,0.0,,1.0,1.0,32.0,57.0,1.03,-0.32841095489074923,17.0,0.22470281371331025,-0.8615382762752041,1.0862410899885142
177,Pilot,d10012021,lPMys,interference,0.0,2.0,31.0,55.0,49.0,Lewic1.jpg,Hinda1.jpg,50.0,43.0,1.0,,,1.0,55.0,49.0,0.845,-0.527217232035057,7.0,-0.414262533338757,-0.8615382762752041,0.44727574293644706
178,Pilot,d10012021,lPMys,interference,0.0,3.0,32.0,56.0,22.0,Luisc1.jpg,Macb1n.jpg,54.0,41.0,0.0,,,0.0,22.0,56.0,3.669,2.507533722859674,13.0,-0.15867639451793009,-0.9893313456856175,0.8306549511676875
179,Pilot,d10012021,lPMys,interference,0.0,3.0,33.0,24.0,38.0,Dekoa1.jpg,Lasc1n.jpg,55.0,57.0,0.0,,,1.0,24.0,38.0,0.908,-0.4595156349534819,-2.0,-0.09477985981272337,0.03301320959769008,-0.12779306941041346
180,Pilot,d10012021,lPMys,interference,0.0,3.0,34.0,55.0,49.0,Lewic1.jpg,Hinda1.jpg,50.0,43.0,0.0,,,1.0,55.0,49.0,1.119,-0.23276901615646065,7.0,-0.414262533338757,-0.8615382762752041,0.44727574293644706
181,Pilot,d10012021,lPMys,interference,1.0,3.0,35.0,3.0,41.0,Fogeg1.jpg,Vincb1.jpg,56.0,62.0,0.0,,1.0,0.0,41.0,3.0,0.943,-0.42190363657482916,-6.0,-0.030883325107516645,0.3524958831237237,-0.38337920823124033
182,Pilot,d10012021,lPMys,interference,0.0,3.0,36.0,31.0,10.0,Maca1n.jpg,Stera1.jpg,59.0,48.0,0.0,,,1.0,31.0,10.0,0.655,-0.7313966518048866,11.0,0.16080627900810354,-0.5420556027491704,0.7028618817572739
183,Pilot,d10012021,lPMys,interference,1.0,3.0,37.0,32.0,57.0,Macka1.jpg,Lewc1n.jpg,60.0,43.0,0.0,,1.0,1.0,32.0,57.0,0.831,-0.5422620313865182,17.0,0.22470281371331025,-0.8615382762752041,1.0862410899885142
184,Pilot,d10012021,lPMys,interference,0.0,3.0,38.0,33.0,7.0,Kupc1n.jpg,Pica1n.jpg,60.0,68.0,0.0,,,0.0,7.0,33.0,0.768,-0.6099636284680932,-8.0,0.22470281371331025,0.7358750913549641,-0.5111722776416538
185,Pilot,d10012021,lPMys,interference,1.0,3.0,39.0,47.0,4.0,Kupkd1.jpg,Mackb1.jpg,58.0,45.0,0.0,,0.0,1.0,47.0,4.0,0.674,-0.7109787098279036,13.0,0.09690974430289681,-0.7337452068647906,0.8306549511676874
186,Pilot,d10012021,lPMys,interference,1.0,3.0,40.0,59.0,25.0,Kraa1n.jpg,Clifa1.jpg,60.0,68.0,0.0,,0.0,0.0,25.0,59.0,1.481,0.15624650993132008,-8.0,0.22470281371331025,0.7358750913549641,-0.5111722776416538
187,Pilot,d10012021,lPMys,interference,0.0,3.0,41.0,2.0,13.0,Dekob1.jpg,Picak1.jpg,57.0,60.0,0.0,,,0.0,13.0,2.0,0.681,-0.703456310152173,-3.0,0.03301320959769008,0.22470281371331025,-0.19168960411562017
188,Pilot,d10012021,lPMys,interference,1.0,3.0,42.0,23.0,19.0,Lewib1.jpg,Macc1n.jpg,61.0,62.0,0.0,,0.0,0.0,19.0,23.0,0.731,-0.6497248838969548,-1.0,0.288599348418517,0.3524958831237237,-0.06389653470520673
189,Pilot,d10012021,lPMys,interference,1.0,3.0,43.0,12.0,43.0,Kupkc1.jpg,Picac1.jpg,63.0,67.0,0.0,,1.0,0.0,43.0,12.0,0.745,-0.6346800845454936,-4.0,0.41639241782893044,0.6719785566497574,-0.2555861388208269
190,Pilot,d10012021,lPMys,interference,1.0,3.0,44.0,1.0,34.0,Lewia1.jpg,Monb1n.jpg,64.0,46.0,0.0,,0.0,1.0,1.0,34.0,0.569,-0.8238147049638622,18.0,0.48028895253413717,-0.6698486721595839,1.1501376246937212
191,Pilot,d10012021,lPMys,interference,0.0,3.0,45.0,46.0,0.0,Deka1n.jpg,Gorkc1.jpg,60.0,59.0,0.0,,,0.0,0.0,46.0,0.668,-0.7174264809785298,1.0,0.22470281371331025,0.16080627900810354,0.0638965347052067
192,Pilot,d10012021,lPMys,interference,1.0,3.0,46.0,45.0,37.0,Klia1n.jpg,Mondb1.jpg,50.0,62.0,0.0,,1.0,0.0,37.0,45.0,0.768,-0.6099636284680932,-12.0,-0.414262533338757,0.3524958831237237,-0.7667584164624808
193,Pilot,d10012021,lPMys,interference,0.0,3.0,47.0,27.0,28.0,Vinb1n.jpg,Krasa1.jpg,53.0,55.0,0.0,,,0.0,28.0,27.0,0.831,-0.5422620313865182,-2.0,-0.22257292922313682,-0.09477985981272337,-0.12779306941041346
194,Pilot,d09302021,d1IcC,interference,1.0,1.0,0.0,27.0,16.0,Vinb1n.jpg,Lewa1n.jpg,23.0,16.0,1.0,,0.0,1.0,27.0,16.0,3.849,4.271718589194959,7.0,-0.3884217037804723,-0.6341101308705299,0.24568842709005762
195,Pilot,d09302021,d1IcC,interference,0.0,1.0,1.0,59.0,45.0,Kraa1n.jpg,Klia1n.jpg,21.0,15.0,0.0,,,0.0,45.0,59.0,1.376,0.22932247787463816,6.0,-0.4586183972347745,-0.6692084775976811,0.2105900803629066
196,Pilot,d09302021,d1IcC,interference,1.0,1.0,2.0,4.0,44.0,Mackb1.jpg,Lassf1.jpg,9.0,41.0,1.0,,1.0,0.0,44.0,4.0,1.824,0.9616287689670379,-32.0,-0.8797985579605877,0.24334853730824751,-1.1231470952688352
197,Pilot,d09302021,d1IcC,interference,0.0,1.0,3.0,10.0,55.0,Stera1.jpg,Lewic1.jpg,11.0,51.0,0.0,,,1.0,10.0,55.0,2.391,1.8884539186308558,-40.0,-0.8096018645062855,0.5943320045797585,-1.403933869086044
198,Pilot,d09302021,d1IcC,interference,1.0,1.0,4.0,19.0,31.0,Macc1n.jpg,Maca1n.jpg,30.0,62.0,1.0,,0.0,1.0,19.0,31.0,3.041,2.950951885617596,-32.0,-0.14273327669041458,0.9804138185784206,-1.1231470952688352
199,Pilot,d09302021,d1IcC,interference,0.0,1.0,5.0,17.0,29.0,Picab1.jpg,Clifb1.jpg,12.0,6.0,0.0,,,0.0,29.0,17.0,1.358,0.1998994572503903,6.0,-0.7745035177791344,-0.985093598142041,0.2105900803629066
200,Pilot,d09302021,d1IcC,interference,0.0,1.0,6.0,8.0,5.0,Klina1.jpg,Kupb1n.jpg,21.0,64.0,0.0,,,0.0,5.0,8.0,1.13,-0.17279213732342044,-43.0,-0.4586183972347745,1.0506105120327227,-1.509228909267497
201,Pilot,d09302021,d1IcC,interference,0.0,1.0,7.0,12.0,38.0,Kupkc1.jpg,Lasc1n.jpg,65.0,59.0,0.0,,,1.0,12.0,38.0,0.738,-0.8135601420292697,6.0,1.0857088587598738,0.8751187783969673,0.2105900803629065
202,Pilot,d09302021,d1IcC,interference,0.0,1.0,8.0,33.0,32.0,Kupc1n.jpg,Macka1.jpg,4.0,33.0,0.0,,,1.0,33.0,32.0,0.94,-0.483368466134929,-29.0,-1.0552902915963431,-0.03743823650896129,-1.0178520550873817
203,Pilot,d09302021,d1IcC,interference,0.0,1.0,9.0,22.0,15.0,Macb1n.jpg,Clia1n.jpg,25.0,32.0,0.0,,,1.0,22.0,15.0,1.104,-0.21529205600288973,-7.0,-0.31822501032617007,-0.07253658323611238,-0.24568842709005767
204,Pilot,d09302021,d1IcC,interference,1.0,1.0,10.0,46.0,58.0,Deka1n.jpg,Mackc1.jpg,62.0,68.0,1.0,,0.0,1.0,46.0,58.0,1.036,-0.32644568947227187,-6.0,0.9804138185784206,1.1910038989413272,-0.2105900803629066
205,Pilot,d09302021,d1IcC,interference,1.0,1.0,11.0,24.0,25.0,Dekoa1.jpg,Clifa1.jpg,19.0,65.0,1.0,,1.0,0.0,25.0,24.0,1.671,0.7115330936609282,-46.0,-0.5288150906890767,1.0857088587598738,-1.6145239494489505
206,Pilot,d09302021,d1IcC,interference,1.0,1.0,12.0,41.0,13.0,Vincb1.jpg,Picak1.jpg,32.0,67.0,1.0,,1.0,0.0,13.0,41.0,1.795,0.91422501351686,-35.0,-0.07253658323611238,1.1559055522141761,-1.2284421354502886
207,Pilot,d09302021,d1IcC,interference,1.0,1.0,13.0,3.0,34.0,Fogeg1.jpg,Monb1n.jpg,11.0,50.0,1.0,,0.0,1.0,3.0,34.0,1.137,-0.1613498515251015,-39.0,-0.8096018645062855,0.5592336578526074,-1.3688355223588928
208,Pilot,d09302021,d1IcC,interference,0.0,1.0,14.0,50.0,54.0,Gorke1.jpg,Kupka1.jpg,36.0,18.0,0.0,,,0.0,54.0,50.0,1.942,1.1545130152815535,18.0,0.06785680367249201,-0.5639134374162278,0.6317702410887198
209,Pilot,d09302021,d1IcC,interference,1.0,1.0,15.0,42.0,23.0,Picc1n.jpg,Lewib1.jpg,14.0,7.0,1.0,,1.0,0.0,23.0,42.0,1.38,0.23586092690224886,7.0,-0.7043068243248322,-0.9499952514148898,0.24568842709005767
210,Pilot,d09302021,d1IcC,interference,0.0,2.0,16.0,12.0,38.0,Kupkc1.jpg,Lasc1n.jpg,65.0,59.0,1.0,,,1.0,12.0,38.0,1.452,0.3535530093992417,6.0,1.0857088587598738,0.8751187783969673,0.2105900803629065
211,Pilot,d09302021,d1IcC,interference,0.0,2.0,17.0,8.0,5.0,Klina1.jpg,Kupb1n.jpg,21.0,64.0,1.0,,,0.0,5.0,8.0,1.145,-0.1482729534698801,-43.0,-0.4586183972347745,1.0506105120327227,-1.509228909267497
212,Pilot,d09302021,d1IcC,interference,1.0,2.0,18.0,46.0,58.0,Deka1n.jpg,Mackc1.jpg,62.0,68.0,0.0,,0.0,1.0,46.0,58.0,0.862,-0.6108682221733378,-6.0,0.9804138185784206,1.1910038989413272,-0.2105900803629066
213,Pilot,d09302021,d1IcC,interference,1.0,2.0,19.0,3.0,34.0,Fogeg1.jpg,Monb1n.jpg,11.0,50.0,0.0,,0.0,1.0,3.0,34.0,1.086,-0.24471507662713793,-39.0,-0.8096018645062855,0.5592336578526074,-1.3688355223588928
214,Pilot,d09302021,d1IcC,interference,1.0,2.0,20.0,4.0,44.0,Mackb1.jpg,Lassf1.jpg,9.0,41.0,0.0,,1.0,0.0,44.0,4.0,0.879,-0.5830798138059923,-32.0,-0.8797985579605877,0.24334853730824751,-1.1231470952688352
215,Pilot,d09302021,d1IcC,interference,1.0,2.0,21.0,24.0,25.0,Dekoa1.jpg,Clifa1.jpg,19.0,65.0,0.0,,1.0,0.0,25.0,24.0,0.859,-0.6157720589440459,-46.0,-0.5288150906890767,1.0857088587598738,-1.6145239494489505
216,Pilot,d09302021,d1IcC,interference,0.0,2.0,22.0,22.0,15.0,Macb1n.jpg,Clia1n.jpg,25.0,32.0,1.0,,,1.0,22.0,15.0,1.051,-0.30192650561873186,-7.0,-0.31822501032617007,-0.07253658323611238,-0.24568842709005767
217,Pilot,d09302021,d1IcC,interference,0.0,2.0,23.0,33.0,32.0,Kupc1n.jpg,Macka1.jpg,4.0,33.0,1.0,,,1.0,33.0,32.0,0.712,-0.8560600607087394,-29.0,-1.0552902915963431,-0.03743823650896129,-1.0178520550873817
218,Pilot,d09302021,d1IcC,interference,0.0,2.0,24.0,17.0,29.0,Picab1.jpg,Clifb1.jpg,12.0,6.0,1.0,,,0.0,29.0,17.0,0.944,-0.4768300171073183,6.0,-0.7745035177791344,-0.985093598142041,0.2105900803629066
219,Pilot,d09302021,d1IcC,interference,0.0,2.0,25.0,59.0,45.0,Kraa1n.jpg,Klia1n.jpg,21.0,15.0,1.0,,,0.0,45.0,59.0,1.346,0.18028411016755816,6.0,-0.4586183972347745,-0.6692084775976811,0.2105900803629066
220,Pilot,d09302021,d1IcC,interference,0.0,2.0,26.0,10.0,55.0,Stera1.jpg,Lewic1.jpg,11.0,51.0,1.0,,,1.0,10.0,55.0,1.281,0.07403431346888387,-40.0,-0.8096018645062855,0.5943320045797585,-1.403933869086044
221,Pilot,d09302021,d1IcC,interference,0.0,2.0,27.0,50.0,54.0,Gorke1.jpg,Kupka1.jpg,36.0,18.0,1.0,,,0.0,54.0,50.0,1.213,-0.037119320000497925,18.0,0.06785680367249201,-0.5639134374162278,0.6317702410887198
222,Pilot,d09302021,d1IcC,interference,1.0,2.0,28.0,42.0,23.0,Picc1n.jpg,Lewib1.jpg,14.0,7.0,0.0,,1.0,0.0,23.0,42.0,1.404,0.2750916210679132,7.0,-0.7043068243248322,-0.9499952514148898,0.24568842709005767
223,Pilot,d09302021,d1IcC,interference,1.0,2.0,29.0,41.0,13.0,Vincb1.jpg,Picak1.jpg,32.0,67.0,0.0,,1.0,0.0,13.0,41.0,1.575,0.554610316998271,-35.0,-0.07253658323611238,1.1559055522141761,-1.2284421354502886
224,Pilot,d09302021,d1IcC,interference,1.0,2.0,30.0,19.0,31.0,Macc1n.jpg,Maca1n.jpg,30.0,62.0,0.0,,0.0,1.0,19.0,31.0,1.152,-0.13683066767156152,-32.0,-0.14273327669041458,0.9804138185784206,-1.1231470952688352
225,Pilot,d09302021,d1IcC,interference,1.0,2.0,31.0,27.0,16.0,Vinb1n.jpg,Lewa1n.jpg,23.0,16.0,0.0,,0.0,1.0,27.0,16.0,1.066,-0.2774073217651915,7.0,-0.3884217037804723,-0.6341101308705299,0.24568842709005762
226,Pilot,d09302021,d1IcC,interference,0.0,3.0,32.0,10.0,55.0,Stera1.jpg,Lewic1.jpg,11.0,51.0,0.0,,,1.0,10.0,55.0,1.347,0.18191872242446067,-40.0,-0.8096018645062855,0.5943320045797585,-1.403933869086044
227,Pilot,d09302021,d1IcC,interference,0.0,3.0,33.0,59.0,45.0,Kraa1n.jpg,Klia1n.jpg,21.0,15.0,0.0,,,0.0,45.0,59.0,1.199,-0.06000389159713543,6.0,-0.4586183972347745,-0.6692084775976811,0.2105900803629066
228,Pilot,d09302021,d1IcC,interference,0.0,3.0,34.0,12.0,38.0,Kupkc1.jpg,Lasc1n.jpg,65.0,59.0,0.0,,,1.0,12.0,38.0,0.718,-0.8462523871673233,6.0,1.0857088587598738,0.8751187783969673,0.2105900803629065
229,Pilot,d09302021,d1IcC,interference,1.0,3.0,35.0,46.0,58.0,Deka1n.jpg,Mackc1.jpg,62.0,68.0,0.0,,0.0,1.0,46.0,58.0,0.797,-0.7171180188720118,-6.0,0.9804138185784206,1.1910038989413272,-0.2105900803629066
230,Pilot,d09302021,d1IcC,interference,1.0,3.0,36.0,27.0,16.0,Vinb1n.jpg,Lewa1n.jpg,23.0,16.0,0.0,,0.0,1.0,27.0,16.0,0.69,-0.8920215303605984,7.0,-0.3884217037804723,-0.6341101308705299,0.24568842709005762
231,Pilot,d09302021,d1IcC,interference,1.0,3.0,37.0,41.0,13.0,Vincb1.jpg,Picak1.jpg,32.0,67.0,0.0,,1.0,0.0,13.0,41.0,0.907,-0.5373106706127172,-35.0,-0.07253658323611238,1.1559055522141761,-1.2284421354502886
232,Pilot,d09302021,d1IcC,interference,0.0,3.0,38.0,22.0,15.0,Macb1n.jpg,Clia1n.jpg,25.0,32.0,0.0,,,1.0,22.0,15.0,0.692,-0.888752305846793,-7.0,-0.31822501032617007,-0.07253658323611238,-0.24568842709005767
233,Pilot,d09302021,d1IcC,interference,1.0,3.0,39.0,42.0,23.0,Picc1n.jpg,Lewib1.jpg,14.0,7.0,0.0,,1.0,0.0,23.0,42.0,0.824,-0.6729834879356396,7.0,-0.7043068243248322,-0.9499952514148898,0.24568842709005767
234,Pilot,d09302021,d1IcC,interference,1.0,3.0,40.0,19.0,31.0,Macc1n.jpg,Maca1n.jpg,30.0,62.0,0.0,,0.0,1.0,19.0,31.0,0.979,-0.41961858811572456,-32.0,-0.14273327669041458,0.9804138185784206,-1.1231470952688352
235,Pilot,d09302021,d1IcC,interference,0.0,3.0,41.0,33.0,32.0,Kupc1n.jpg,Macka1.jpg,4.0,33.0,0.0,,,1.0,33.0,32.0,1.901,1.087493912748544,-29.0,-1.0552902915963431,-0.03743823650896129,-1.0178520550873817
236,Pilot,d09302021,d1IcC,interference,0.0,3.0,42.0,50.0,54.0,Gorke1.jpg,Kupka1.jpg,36.0,18.0,0.0,,,0.0,54.0,50.0,0.847,-0.6353874060268779,18.0,0.06785680367249201,-0.5639134374162278,0.6317702410887198
237,Pilot,d09302021,d1IcC,interference,0.0,3.0,43.0,8.0,5.0,Klina1.jpg,Kupb1n.jpg,21.0,64.0,0.0,,,0.0,5.0,8.0,0.669,-0.9263483877555544,-43.0,-0.4586183972347745,1.0506105120327227,-1.509228909267497
238,Pilot,d09302021,d1IcC,interference,1.0,3.0,44.0,3.0,34.0,Fogeg1.jpg,Monb1n.jpg,11.0,50.0,0.0,,0.0,1.0,3.0,34.0,0.728,-0.8299062645982965,-39.0,-0.8096018645062855,0.5592336578526074,-1.3688355223588928
239,Pilot,d09302021,d1IcC,interference,0.0,3.0,45.0,17.0,29.0,Picab1.jpg,Clifb1.jpg,12.0,6.0,0.0,,,0.0,29.0,17.0,0.715,-0.8511562239380314,6.0,-0.7745035177791344,-0.985093598142041,0.2105900803629066
240,Pilot,d09302021,d1IcC,interference,1.0,3.0,46.0,4.0,44.0,Mackb1.jpg,Lassf1.jpg,9.0,41.0,0.0,,1.0,0.0,44.0,4.0,0.714,-0.852790836194934,-32.0,-0.8797985579605877,0.24334853730824751,-1.1231470952688352
241,Pilot,d09302021,d1IcC,interference,1.0,3.0,47.0,24.0,25.0,Dekoa1.jpg,Clifa1.jpg,19.0,65.0,0.0,,1.0,0.0,25.0,24.0,0.848,-0.6337527937699753,-46.0,-0.5288150906890767,1.0857088587598738,-1.6145239494489505
242,Pilot,d10012021,BAWYi,interference,1.0,1.0,0.0,3.0,40.0,Fogeg1.jpg,Krab1n.jpg,54.0,47.0,1.0,,0.0,1.0,3.0,40.0,4.307,1.51689227654531,7.0,0.04999171808654268,-0.2587806583303387,0.3087723764168814
243,Pilot,d10012021,BAWYi,interference,0.0,1.0,1.0,33.0,30.0,Kupc1n.jpg,Lasse1.jpg,73.0,51.0,0.0,,,1.0,33.0,30.0,2.436,0.25936616147223535,22.0,0.888088168360935,-0.08233930037783506,0.9704274687387701
244,Pilot,d10012021,BAWYi,interference,1.0,1.0,2.0,5.0,0.0,Kupb1n.jpg,Gorkc1.jpg,58.0,35.0,1.0,,1.0,0.0,0.0,5.0,5.045,2.012912732410584,23.0,0.22643307603904633,-0.7881047321878496,1.0145378082268959
245,Pilot,d10012021,BAWYi,interference,1.0,1.0,3.0,1.0,59.0,Lewia1.jpg,Kraa1n.jpg,56.0,34.0,1.0,,1.0,0.0,59.0,1.0,7.405,3.599102808077316,22.0,0.1382123970627945,-0.8322150716759755,0.9704274687387701
246,Pilot,d10012021,BAWYi,interference,1.0,1.0,4.0,14.0,26.0,Kupkb1.jpg,Clib1n.jpg,67.0,57.0,1.0,,0.0,1.0,14.0,26.0,4.596,1.7111333493706,10.0,0.6234261314321795,0.1823227365509204,0.4411033948812591
247,Pilot,d10012021,BAWYi,interference,1.0,1.0,5.0,49.0,56.0,Hinda1.jpg,Luisc1.jpg,63.0,58.0,1.0,,0.0,1.0,49.0,56.0,4.595,1.710461234931758,5.0,0.44698477347967586,0.22643307603904633,0.22055169744062952
248,Pilot,d10012021,BAWYi,interference,1.0,1.0,6.0,22.0,51.0,Macb1n.jpg,Gora1n.jpg,60.0,60.0,1.0,,0.0,1.0,22.0,51.0,5.829,2.539850452462583,0.0,0.31465375501529813,0.31465375501529813,0.0
249,Pilot,d10012021,BAWYi,interference,0.0,1.0,7.0,9.0,32.0,Lassc1.jpg,Macka1.jpg,47.0,55.0,0.0,,,0.0,32.0,9.0,2.021,-0.019561330647126396,-8.0,-0.2587806583303387,0.0941020575746686,-0.3528827159050073
250,Pilot,d10012021,BAWYi,interference,0.0,1.0,8.0,8.0,4.0,Klina1.jpg,Mackb1.jpg,63.0,71.0,0.0,,,0.0,4.0,8.0,1.374,-0.4544193725777938,-8.0,0.44698477347967586,0.7998674893846832,-0.35288271590500736
251,Pilot,d10012021,BAWYi,interference,1.0,1.0,9.0,47.0,23.0,Kupkd1.jpg,Lewib1.jpg,67.0,62.0,1.0,,1.0,0.0,23.0,47.0,4.07,1.3576011545397948,5.0,0.6234261314321795,0.40287443399155,0.22055169744062952
252,Pilot,d10012021,BAWYi,interference,1.0,1.0,10.0,18.0,37.0,Krasb1.jpg,Mondb1.jpg,43.0,64.0,1.0,,1.0,0.0,37.0,18.0,3.581,1.028937193946137,-21.0,-0.43522201628284235,0.4910951129678018,-0.9263171292506441
253,Pilot,d10012021,BAWYi,interference,0.0,1.0,11.0,55.0,31.0,Lewic1.jpg,Maca1n.jpg,56.0,55.0,0.0,,,0.0,31.0,55.0,3.076,0.6895194023310102,1.0,0.1382123970627945,0.0941020575746686,0.04411033948812591
254,Pilot,d10012021,BAWYi,interference,0.0,1.0,12.0,16.0,27.0,Lewa1n.jpg,Vinb1n.jpg,39.0,55.0,0.0,,,1.0,16.0,27.0,1.781,-0.1808687959691669,-16.0,-0.611663374235346,0.0941020575746686,-0.7057654318100146
255,Pilot,d10012021,BAWYi,interference,0.0,1.0,13.0,15.0,13.0,Clia1n.jpg,Picak1.jpg,44.0,72.0,0.0,,,0.0,13.0,15.0,1.814,-0.15868901948738623,-28.0,-0.3911116767947164,0.8439778288728091,-1.2350895056675255
256,Pilot,d10012021,BAWYi,interference,0.0,1.0,14.0,39.0,24.0,Dekb1n.jpg,Dekoa1.jpg,37.0,44.0,0.0,,,1.0,39.0,24.0,1.23,-0.5512038517710182,-7.0,-0.6998840532115979,-0.3911116767947164,-0.30877237641688143
257,Pilot,d10012021,BAWYi,interference,0.0,1.0,15.0,53.0,45.0,Gorka1.jpg,Klia1n.jpg,59.0,45.0,0.0,,,1.0,53.0,45.0,2.286,0.1585489956459601,14.0,0.27054341552717226,-0.34700133730659055,0.6175447528337628
258,Pilot,d10012021,BAWYi,interference,1.0,2.0,16.0,5.0,0.0,Kupb1n.jpg,Gorkc1.jpg,58.0,35.0,0.0,,1.0,0.0,0.0,5.0,2.588,0.3615275561761944,23.0,0.22643307603904633,-0.7881047321878496,1.0145378082268959
259,Pilot,d10012021,BAWYi,interference,0.0,2.0,17.0,15.0,13.0,Clia1n.jpg,Picak1.jpg,44.0,72.0,1.0,,,0.0,13.0,15.0,0.855,-0.8032467663367066,-28.0,-0.3911116767947164,0.8439778288728091,-1.2350895056675255
260,Pilot,d10012021,BAWYi,interference,1.0,2.0,18.0,47.0,23.0,Kupkd1.jpg,Lewib1.jpg,67.0,62.0,0.0,,1.0,0.0,23.0,47.0,1.198,-0.5727115138139569,5.0,0.6234261314321795,0.40287443399155,0.22055169744062952
261,Pilot,d10012021,BAWYi,interference,0.0,2.0,19.0,8.0,4.0,Klina1.jpg,Mackb1.jpg,63.0,71.0,1.0,,,0.0,4.0,8.0,1.255,-0.5344009907999724,-8.0,0.44698477347967586,0.7998674893846832,-0.35288271590500736
262,Pilot,d10012021,BAWYi,interference,1.0,2.0,20.0,14.0,26.0,Kupkb1.jpg,Clib1n.jpg,67.0,57.0,0.0,,0.0,1.0,14.0,26.0,2.293,0.163253796717853,10.0,0.6234261314321795,0.1823227365509204,0.4411033948812591
263,Pilot,d10012021,BAWYi,interference,1.0,2.0,21.0,22.0,51.0,Macb1n.jpg,Gora1n.jpg,60.0,60.0,0.0,,0.0,1.0,22.0,51.0,1.494,-0.37376563991677364,0.0,0.31465375501529813,0.31465375501529813,0.0
264,Pilot,d10012021,BAWYi,interference,1.0,2.0,22.0,3.0,40.0,Fogeg1.jpg,Krab1n.jpg,54.0,47.0,0.0,,0.0,1.0,3.0,40.0,1.278,-0.5189423587066101,7.0,0.04999171808654268,-0.2587806583303387,0.3087723764168814
265,Pilot,d10012021,BAWYi,interference,1.0,2.0,23.0,18.0,37.0,Krasb1.jpg,Mondb1.jpg,43.0,64.0,0.0,,1.0,0.0,37.0,18.0,1.55,-0.3361272313416308,-21.0,-0.43522201628284235,0.4910951129678018,-0.9263171292506441
266,Pilot,d10012021,BAWYi,interference,0.0,2.0,24.0,33.0,30.0,Kupc1n.jpg,Lasse1.jpg,73.0,51.0,1.0,,,1.0,33.0,30.0,1.31,-0.4974346966636713,22.0,0.888088168360935,-0.08233930037783506,0.9704274687387701
267,Pilot,d10012021,BAWYi,interference,0.0,2.0,25.0,16.0,27.0,Lewa1n.jpg,Vinb1n.jpg,39.0,55.0,1.0,,,1.0,16.0,27.0,1.228,-0.5525480806487019,-16.0,-0.611663374235346,0.0941020575746686,-0.7057654318100146
268,Pilot,d10012021,BAWYi,interference,0.0,2.0,26.0,9.0,32.0,Lassc1.jpg,Macka1.jpg,47.0,55.0,1.0,,,0.0,32.0,9.0,1.26,-0.5310404186057631,-8.0,-0.2587806583303387,0.0941020575746686,-0.3528827159050073
269,Pilot,d10012021,BAWYi,interference,0.0,2.0,27.0,53.0,45.0,Gorka1.jpg,Klia1n.jpg,59.0,45.0,1.0,,,1.0,53.0,45.0,2.275,0.15115573681869982,14.0,0.27054341552717226,-0.34700133730659055,0.6175447528337628
270,Pilot,d10012021,BAWYi,interference,1.0,2.0,28.0,1.0,59.0,Lewia1.jpg,Kraa1n.jpg,56.0,34.0,0.0,,1.0,0.0,59.0,1.0,1.844,-0.13852558632213116,22.0,0.1382123970627945,-0.8322150716759755,0.9704274687387701
271,Pilot,d10012021,BAWYi,interference,0.0,2.0,29.0,55.0,31.0,Lewic1.jpg,Maca1n.jpg,56.0,55.0,1.0,,,0.0,31.0,55.0,1.59,-0.30924265378795734,1.0,0.1382123970627945,0.0941020575746686,0.04411033948812591
272,Pilot,d10012021,BAWYi,interference,1.0,2.0,30.0,49.0,56.0,Hinda1.jpg,Luisc1.jpg,63.0,58.0,0.0,,0.0,1.0,49.0,56.0,1.467,-0.3919127297655031,5.0,0.44698477347967586,0.22643307603904633,0.22055169744062952
273,Pilot,d10012021,BAWYi,interference,0.0,2.0,31.0,39.0,24.0,Dekb1n.jpg,Dekoa1.jpg,37.0,44.0,1.0,,,1.0,39.0,24.0,1.062,-0.6641190774964465,-7.0,-0.6998840532115979,-0.3911116767947164,-0.30877237641688143
274,Pilot,d10012021,BAWYi,interference,1.0,3.0,32.0,14.0,26.0,Kupkb1.jpg,Clib1n.jpg,67.0,57.0,0.0,,0.0,1.0,14.0,26.0,1.812,-0.1600332483650699,10.0,0.6234261314321795,0.1823227365509204,0.4411033948812591
275,Pilot,d10012021,BAWYi,interference,0.0,3.0,33.0,8.0,4.0,Klina1.jpg,Mackb1.jpg,63.0,71.0,0.0,,,0.0,4.0,8.0,1.102,-0.637234499942773,-8.0,0.44698477347967586,0.7998674893846832,-0.35288271590500736
276,Pilot,d10012021,BAWYi,interference,1.0,3.0,34.0,49.0,56.0,Hinda1.jpg,Luisc1.jpg,63.0,58.0,0.0,,0.0,1.0,49.0,56.0,0.894,-0.7770343032218748,5.0,0.44698477347967586,0.22643307603904633,0.22055169744062952
277,Pilot,d10012021,BAWYi,interference,0.0,3.0,35.0,15.0,13.0,Clia1n.jpg,Picak1.jpg,44.0,72.0,0.0,,,0.0,13.0,15.0,1.047,-0.6742007940790741,-28.0,-0.3911116767947164,0.8439778288728091,-1.2350895056675255
278,Pilot,d10012021,BAWYi,interference,0.0,3.0,36.0,16.0,27.0,Lewa1n.jpg,Vinb1n.jpg,39.0,55.0,0.0,,,1.0,16.0,27.0,0.806,-0.8361803738399564,-16.0,-0.611663374235346,0.0941020575746686,-0.7057654318100146
279,Pilot,d10012021,BAWYi,interference,1.0,3.0,37.0,3.0,40.0,Fogeg1.jpg,Krab1n.jpg,54.0,47.0,0.0,,0.0,1.0,3.0,40.0,2.982,0.6263406450798776,7.0,0.04999171808654268,-0.2587806583303387,0.3087723764168814
280,Pilot,d10012021,BAWYi,interference,1.0,3.0,38.0,5.0,0.0,Kupb1n.jpg,Gorkc1.jpg,58.0,35.0,0.0,,1.0,0.0,0.0,5.0,1.174,-0.588842260346161,23.0,0.22643307603904633,-0.7881047321878496,1.0145378082268959
281,Pilot,d10012021,BAWYi,interference,0.0,3.0,39.0,53.0,45.0,Gorka1.jpg,Klia1n.jpg,59.0,45.0,0.0,,,1.0,53.0,45.0,1.031,-0.6849546251005435,14.0,0.27054341552717226,-0.34700133730659055,0.6175447528337628
282,Pilot,d10012021,BAWYi,interference,0.0,3.0,40.0,39.0,24.0,Dekb1n.jpg,Dekoa1.jpg,37.0,44.0,0.0,,,1.0,39.0,24.0,0.926,-0.7555266411789361,-7.0,-0.6998840532115979,-0.3911116767947164,-0.30877237641688143
283,Pilot,d10012021,BAWYi,interference,0.0,3.0,41.0,33.0,30.0,Kupc1n.jpg,Lasse1.jpg,73.0,51.0,0.0,,,1.0,33.0,30.0,0.79,-0.8469342048614258,22.0,0.888088168360935,-0.08233930037783506,0.9704274687387701
284,Pilot,d10012021,BAWYi,interference,1.0,3.0,42.0,18.0,37.0,Krasb1.jpg,Mondb1.jpg,43.0,64.0,0.0,,1.0,0.0,37.0,18.0,0.847,-0.8086236818474412,-21.0,-0.43522201628284235,0.4910951129678018,-0.9263171292506441
285,Pilot,d10012021,BAWYi,interference,1.0,3.0,43.0,47.0,23.0,Kupkd1.jpg,Lewib1.jpg,67.0,62.0,0.0,,1.0,0.0,23.0,47.0,0.959,-0.7333468646971556,5.0,0.6234261314321795,0.40287443399155,0.22055169744062952
286,Pilot,d10012021,BAWYi,interference,0.0,3.0,44.0,55.0,31.0,Lewic1.jpg,Maca1n.jpg,56.0,55.0,0.0,,,0.0,31.0,55.0,1.055,-0.6688238785683395,1.0,0.1382123970627945,0.0941020575746686,0.04411033948812591
287,Pilot,d10012021,BAWYi,interference,0.0,3.0,45.0,9.0,32.0,Lassc1.jpg,Macka1.jpg,47.0,55.0,0.0,,,0.0,32.0,9.0,0.886,-0.7824112187326095,-8.0,-0.2587806583303387,0.0941020575746686,-0.3528827159050073
288,Pilot,d10012021,BAWYi,interference,1.0,3.0,46.0,1.0,59.0,Lewia1.jpg,Kraa1n.jpg,56.0,34.0,0.0,,1.0,0.0,59.0,1.0,1.134,-0.6157268378998345,22.0,0.1382123970627945,-0.8322150716759755,0.9704274687387701
289,Pilot,d10012021,BAWYi,interference,1.0,3.0,47.0,22.0,51.0,Macb1n.jpg,Gora1n.jpg,60.0,60.0,0.0,,0.0,1.0,22.0,51.0,0.967,-0.7279699491864209,0.0,0.31465375501529813,0.31465375501529813,0.0
290,Pilot,d10012021,Kmecz,interference,1.0,1.0,0.0,31.0,10.0,Maca1n.jpg,Stera1.jpg,35.0,58.0,1.0,,0.0,1.0,31.0,10.0,1.615,1.0380983230189467,-23.0,-1.1322493795786746,0.303875752607512,-1.4361251321861865
291,Pilot,d10012021,Kmecz,interference,0.0,1.0,1.0,2.0,53.0,Dekob1.jpg,Gorka1.jpg,62.0,38.0,0.0,,,1.0,2.0,53.0,1.387,0.5739883492814839,24.0,0.5536366451616314,-0.9449287101630851,1.4985653553247165
292,Pilot,d10012021,Kmecz,interference,1.0,1.0,2.0,50.0,59.0,Gorke1.jpg,Kraa1n.jpg,37.0,63.0,1.0,,1.0,0.0,59.0,50.0,1.05,-0.11199876102345016,-26.0,-1.007368933301615,0.6160768683001612,-1.623445801601776
293,Pilot,d10012021,Kmecz,interference,0.0,1.0,3.0,18.0,27.0,Krasb1.jpg,Vinb1n.jpg,64.0,62.0,0.0,,,1.0,18.0,27.0,1.541,0.8874661385602964,2.0,0.6785170914386911,0.5536366451616314,0.12488044627705974
294,Pilot,d10012021,Kmecz,interference,1.0,1.0,4.0,30.0,42.0,Lasse1.jpg,Picc1n.jpg,64.0,34.0,1.0,,1.0,0.0,42.0,30.0,1.277,0.3500756426537604,30.0,0.6785170914386911,-1.1946896027172045,1.8732066941558956
295,Pilot,d10012021,Kmecz,interference,1.0,1.0,5.0,19.0,7.0,Macc1n.jpg,Pica1n.jpg,39.0,59.0,1.0,,0.0,1.0,19.0,7.0,1.65,1.1093432751277676,-20.0,-0.8824884870245552,0.3663159757460418,-1.248804462770597
296,Pilot,d10012021,Kmecz,interference,1.0,1.0,6.0,37.0,24.0,Mondb1.jpg,Dekoa1.jpg,61.0,35.0,1.0,,0.0,1.0,37.0,24.0,1.545,0.8956084188013045,26.0,0.49119642202310154,-1.1322493795786746,1.623445801601776
297,Pilot,d10012021,Kmecz,interference,1.0,1.0,7.0,54.0,13.0,Kupka1.jpg,Picak1.jpg,60.0,62.0,1.0,,0.0,1.0,54.0,13.0,1.17,0.1322696462067932,-2.0,0.42875619888457167,0.5536366451616314,-0.12488044627705969
298,Pilot,d10012021,Kmecz,interference,1.0,1.0,8.0,44.0,57.0,Lassf1.jpg,Lewc1n.jpg,65.0,59.0,1.0,,1.0,0.0,57.0,44.0,2.774,3.3973240228510497,6.0,0.7409573145772209,0.3663159757460418,0.3746413388311791
299,Pilot,d10012021,Kmecz,interference,0.0,1.0,9.0,5.0,46.0,Kupb1n.jpg,Deka1n.jpg,67.0,39.0,0.0,,,0.0,46.0,5.0,2.336,2.50574433646066,28.0,0.8658377608542807,-0.8824884870245552,1.7483262478788357
300,Pilot,d10012021,Kmecz,interference,0.0,1.0,10.0,17.0,45.0,Picab1.jpg,Klia1n.jpg,35.0,34.0,0.0,,,1.0,17.0,45.0,0.875,-0.46822352156755553,1.0,-1.1322493795786746,-1.1946896027172045,0.06244022313852993
301,Pilot,d10012021,Kmecz,interference,0.0,1.0,11.0,34.0,9.0,Monb1n.jpg,Lassc1.jpg,63.0,59.0,0.0,,,0.0,9.0,34.0,0.77,-0.6819583778940187,4.0,0.6160768683001612,0.3663159757460418,0.24976089255411937
302,Pilot,d10012021,Kmecz,interference,0.0,1.0,12.0,58.0,49.0,Mackc1.jpg,Hinda1.jpg,61.0,64.0,0.0,,,1.0,58.0,49.0,0.972,-0.27077322572310863,-3.0,0.49119642202310154,0.6785170914386911,-0.18732066941558956
303,Pilot,d10012021,Kmecz,interference,1.0,1.0,13.0,48.0,43.0,Picb1n.jpg,Picac1.jpg,61.0,35.0,1.0,,1.0,0.0,43.0,48.0,0.874,-0.47025909162780755,26.0,0.49119642202310154,-1.1322493795786746,1.623445801601776
304,Pilot,d10012021,Kmecz,interference,0.0,1.0,14.0,47.0,4.0,Kupkd1.jpg,Mackb1.jpg,68.0,57.0,0.0,,,0.0,4.0,47.0,1.474,0.7510829445234105,11.0,0.9282779839928105,0.2414355294689821,0.6868424545238283
305,Pilot,d10012021,Kmecz,interference,0.0,1.0,15.0,41.0,33.0,Vincb1.jpg,Kupc1n.jpg,37.0,66.0,0.0,,,0.0,33.0,41.0,1.441,0.6839091325350937,-29.0,-1.007368933301615,0.8033975377157507,-1.8107664710173657
306,Pilot,d10012021,Kmecz,interference,0.0,2.0,16.0,41.0,33.0,Vincb1.jpg,Kupc1n.jpg,37.0,66.0,1.0,,,0.0,33.0,41.0,1.068,-0.0753584999389136,-29.0,-1.007368933301615,0.8033975377157507,-1.8107664710173657
307,Pilot,d10012021,Kmecz,interference,1.0,2.0,17.0,44.0,57.0,Lassf1.jpg,Lewc1n.jpg,65.0,59.0,0.0,,1.0,0.0,57.0,44.0,0.889,-0.4397255407240271,6.0,0.7409573145772209,0.3663159757460418,0.3746413388311791
308,Pilot,d10012021,Kmecz,interference,1.0,2.0,18.0,48.0,43.0,Picb1n.jpg,Picac1.jpg,61.0,35.0,0.0,,1.0,0.0,43.0,48.0,0.747,-0.7287764892798154,26.0,0.49119642202310154,-1.1322493795786746,1.623445801601776
309,Pilot,d10012021,Kmecz,interference,0.0,2.0,19.0,47.0,4.0,Kupkd1.jpg,Mackb1.jpg,68.0,57.0,1.0,,,0.0,4.0,47.0,0.946,-0.3236980472896615,11.0,0.9282779839928105,0.2414355294689821,0.6868424545238283
310,Pilot,d10012021,Kmecz,interference,1.0,2.0,20.0,37.0,24.0,Mondb1.jpg,Dekoa1.jpg,61.0,35.0,0.0,,0.0,1.0,37.0,24.0,1.066,-0.07942964005941766,26.0,0.49119642202310154,-1.1322493795786746,1.623445801601776
311,Pilot,d10012021,Kmecz,interference,1.0,2.0,21.0,30.0,42.0,Lasse1.jpg,Picc1n.jpg,64.0,34.0,0.0,,1.0,0.0,42.0,30.0,0.736,-0.7511677599425878,30.0,0.6785170914386911,-1.1946896027172045,1.8732066941558956
312,Pilot,d10012021,Kmecz,interference,0.0,2.0,22.0,5.0,46.0,Kupb1n.jpg,Deka1n.jpg,67.0,39.0,1.0,,,0.0,46.0,5.0,0.822,-0.5761087347609132,28.0,0.8658377608542807,-0.8824884870245552,1.7483262478788357
313,Pilot,d10012021,Kmecz,interference,0.0,2.0,23.0,18.0,27.0,Krasb1.jpg,Vinb1n.jpg,64.0,62.0,1.0,,,1.0,18.0,27.0,1.006,-0.20156384367453958,2.0,0.6785170914386911,0.5536366451616314,0.12488044627705974
314,Pilot,d10012021,Kmecz,interference,0.0,2.0,24.0,17.0,45.0,Picab1.jpg,Klia1n.jpg,35.0,34.0,1.0,,,1.0,17.0,45.0,0.876,-0.4661879515073035,1.0,-1.1322493795786746,-1.1946896027172045,0.06244022313852993
315,Pilot,d10012021,Kmecz,interference,1.0,2.0,25.0,19.0,7.0,Macc1n.jpg,Pica1n.jpg,39.0,59.0,0.0,,0.0,1.0,19.0,7.0,2.629,3.102166364114505,-20.0,-0.8824884870245552,0.3663159757460418,-1.248804462770597
316,Pilot,d10012021,Kmecz,interference,1.0,2.0,26.0,31.0,10.0,Maca1n.jpg,Stera1.jpg,35.0,58.0,0.0,,0.0,1.0,31.0,10.0,1.256,0.307328671388468,-23.0,-1.1322493795786746,0.303875752607512,-1.4361251321861865
317,Pilot,d10012021,Kmecz,interference,0.0,2.0,27.0,58.0,49.0,Mackc1.jpg,Hinda1.jpg,61.0,64.0,1.0,,,1.0,58.0,49.0,1.246,0.28697297078594763,-3.0,0.49119642202310154,0.6785170914386911,-0.18732066941558956
318,Pilot,d10012021,Kmecz,interference,0.0,2.0,28.0,2.0,53.0,Dekob1.jpg,Gorka1.jpg,62.0,38.0,1.0,,,1.0,2.0,53.0,1.04,-0.13235446162597048,24.0,0.5536366451616314,-0.9449287101630851,1.4985653553247165
319,Pilot,d10012021,Kmecz,interference,1.0,2.0,29.0,54.0,13.0,Kupka1.jpg,Picak1.jpg,60.0,62.0,0.0,,0.0,1.0,54.0,13.0,0.723,-0.7776301707258642,-2.0,0.42875619888457167,0.5536366451616314,-0.12488044627705969
320,Pilot,d10012021,Kmecz,interference,1.0,2.0,30.0,50.0,59.0,Gorke1.jpg,Kraa1n.jpg,37.0,63.0,0.0,,1.0,0.0,59.0,50.0,1.006,-0.20156384367453958,-26.0,-1.007368933301615,0.6160768683001612,-1.623445801601776
321,Pilot,d10012021,Kmecz,interference,0.0,2.0,31.0,34.0,9.0,Monb1n.jpg,Lassc1.jpg,63.0,59.0,1.0,,,0.0,9.0,34.0,0.671,-0.8834798138589696,4.0,0.6160768683001612,0.3663159757460418,0.24976089255411937
322,Pilot,d10012021,Kmecz,interference,1.0,3.0,32.0,37.0,24.0,Mondb1.jpg,Dekoa1.jpg,61.0,35.0,0.0,,0.0,1.0,37.0,24.0,1.113,0.01624215277242762,26.0,0.49119642202310154,-1.1322493795786746,1.623445801601776
323,Pilot,d10012021,Kmecz,interference,1.0,3.0,33.0,54.0,13.0,Kupka1.jpg,Picak1.jpg,60.0,62.0,0.0,,0.0,1.0,54.0,13.0,0.668,-0.8895865240397257,-2.0,0.42875619888457167,0.5536366451616314,-0.12488044627705969
324,Pilot,d10012021,Kmecz,interference,1.0,3.0,34.0,50.0,59.0,Gorke1.jpg,Kraa1n.jpg,37.0,63.0,0.0,,1.0,0.0,59.0,50.0,0.714,-0.7959503012681325,-26.0,-1.007368933301615,0.6160768683001612,-1.623445801601776
325,Pilot,d10012021,Kmecz,interference,0.0,3.0,35.0,41.0,33.0,Vincb1.jpg,Kupc1n.jpg,37.0,66.0,0.0,,,0.0,33.0,41.0,0.927,-0.36237387843444985,-29.0,-1.007368933301615,0.8033975377157507,-1.8107664710173657
326,Pilot,d10012021,Kmecz,interference,1.0,3.0,36.0,48.0,43.0,Picb1n.jpg,Picac1.jpg,61.0,35.0,0.0,,1.0,0.0,43.0,48.0,0.687,-0.850910692894937,26.0,0.49119642202310154,-1.1322493795786746,1.623445801601776
327,Pilot,d10012021,Kmecz,interference,0.0,3.0,37.0,47.0,4.0,Kupkd1.jpg,Mackb1.jpg,68.0,57.0,0.0,,,0.0,4.0,47.0,0.798,-0.6249624162069618,11.0,0.9282779839928105,0.2414355294689821,0.6868424545238283
328,Pilot,d10012021,Kmecz,interference,1.0,3.0,38.0,30.0,42.0,Lasse1.jpg,Picc1n.jpg,64.0,34.0,0.0,,1.0,0.0,42.0,30.0,0.852,-0.5150416329533523,30.0,0.6785170914386911,-1.1946896027172045,1.8732066941558956
329,Pilot,d10012021,Kmecz,interference,1.0,3.0,39.0,19.0,7.0,Macc1n.jpg,Pica1n.jpg,39.0,59.0,0.0,,0.0,1.0,19.0,7.0,0.897,-0.4234409802420108,-20.0,-0.8824884870245552,0.3663159757460418,-1.248804462770597
330,Pilot,d10012021,Kmecz,interference,1.0,3.0,40.0,31.0,10.0,Maca1n.jpg,Stera1.jpg,35.0,58.0,0.0,,0.0,1.0,31.0,10.0,1.807,1.4289277745873363,-23.0,-1.1322493795786746,0.303875752607512,-1.4361251321861865
331,Pilot,d10012021,Kmecz,interference,0.0,3.0,41.0,58.0,49.0,Mackc1.jpg,Hinda1.jpg,61.0,64.0,0.0,,,1.0,58.0,49.0,0.739,-0.7450610497618316,-3.0,0.49119642202310154,0.6785170914386911,-0.18732066941558956
332,Pilot,d10012021,Kmecz,interference,0.0,3.0,42.0,17.0,45.0,Picab1.jpg,Klia1n.jpg,35.0,34.0,0.0,,,1.0,17.0,45.0,0.607,-1.0137562977150996,1.0,-1.1322493795786746,-1.1946896027172045,0.06244022313852993
333,Pilot,d10012021,Kmecz,interference,1.0,3.0,43.0,44.0,57.0,Lassf1.jpg,Lewc1n.jpg,65.0,59.0,0.0,,1.0,0.0,57.0,44.0,0.692,-0.8407328425936772,6.0,0.7409573145772209,0.3663159757460418,0.3746413388311791
334,Pilot,d10012021,Kmecz,interference,0.0,3.0,44.0,5.0,46.0,Kupb1n.jpg,Deka1n.jpg,67.0,39.0,0.0,,,0.0,46.0,5.0,0.919,-0.3786584389164661,28.0,0.8658377608542807,-0.8824884870245552,1.7483262478788357
335,Pilot,d10012021,Kmecz,interference,0.0,3.0,45.0,34.0,9.0,Monb1n.jpg,Lassc1.jpg,63.0,59.0,0.0,,,0.0,9.0,34.0,0.636,-0.9547247659677907,4.0,0.6160768683001612,0.3663159757460418,0.24976089255411937
336,Pilot,d10012021,Kmecz,interference,0.0,3.0,46.0,18.0,27.0,Krasb1.jpg,Vinb1n.jpg,64.0,62.0,0.0,,,1.0,18.0,27.0,0.7,-0.8244482821116609,2.0,0.6785170914386911,0.5536366451616314,0.12488044627705974
337,Pilot,d10012021,Kmecz,interference,0.0,3.0,47.0,2.0,53.0,Dekob1.jpg,Gorka1.jpg,62.0,38.0,0.0,,,1.0,2.0,53.0,0.807,-0.6066422856646935,24.0,0.5536366451616314,-0.9449287101630851,1.4985653553247165
338,Pilot,d10012021,OH30k,interference,0.0,1.0,0.0,17.0,47.0,Picab1.jpg,Kupkd1.jpg,23.0,18.0,0.0,,,1.0,17.0,47.0,1.042,0.5327612485624784,5.0,0.12594263578721612,-0.2676281010478339,0.39357073683505006
339,Pilot,d10012021,OH30k,interference,0.0,1.0,1.0,44.0,27.0,Lassf1.jpg,Vinb1n.jpg,19.0,17.0,0.0,,,1.0,44.0,27.0,0.843,-0.05177073469835283,2.0,-0.1889139536808239,-0.3463422484148439,0.15742829473402
340,Pilot,d10012021,OH30k,interference,1.0,1.0,2.0,50.0,36.0,Gorke1.jpg,Gorkf1.jpg,20.0,16.0,1.0,,0.0,1.0,50.0,36.0,1.356,1.4550880965217798,4.0,-0.11019980631381389,-0.4250563957818539,0.31485658946804
341,Pilot,d10012021,OH30k,interference,1.0,1.0,3.0,35.0,2.0,Wdeka1.jpg,Dekob1.jpg,17.0,17.0,1.0,,1.0,0.0,2.0,35.0,1.852,2.9120120346995297,0.0,-0.3463422484148439,-0.3463422484148439,0.0
342,Pilot,d10012021,OH30k,interference,0.0,1.0,4.0,4.0,54.0,Mackb1.jpg,Kupka1.jpg,23.0,17.0,0.0,,,0.0,54.0,4.0,0.812,-0.14282848083446195,6.0,0.12594263578721612,-0.3463422484148439,0.47228488420206005
343,Pilot,d10012021,OH30k,interference,0.0,1.0,5.0,5.0,53.0,Kupb1n.jpg,Gorka1.jpg,22.0,18.0,0.0,,,1.0,5.0,53.0,0.775,-0.2515103068678829,4.0,0.04722848842020611,-0.2676281010478339,0.31485658946804
344,Pilot,d10012021,OH30k,interference,1.0,1.0,6.0,7.0,25.0,Pica1n.jpg,Clifa1.jpg,23.0,21.0,1.0,,1.0,0.0,25.0,7.0,0.923,0.18321699726580057,2.0,0.12594263578721612,-0.031485658946803885,0.15742829473402
345,Pilot,d10012021,OH30k,interference,0.0,1.0,7.0,39.0,34.0,Dekb1n.jpg,Monb1n.jpg,17.0,19.0,0.0,,,0.0,34.0,39.0,0.756,-0.3073198932093693,-2.0,-0.3463422484148439,-0.1889139536808239,-0.15742829473402
346,Pilot,d10012021,OH30k,interference,0.0,1.0,8.0,33.0,11.0,Kupc1n.jpg,Wdekb1.jpg,21.0,19.0,0.0,,,1.0,33.0,11.0,0.578,-0.8301675968296103,2.0,-0.031485658946803885,-0.1889139536808239,0.15742829473402
347,Pilot,d10012021,OH30k,interference,1.0,1.0,9.0,43.0,15.0,Picac1.jpg,Clia1n.jpg,16.0,19.0,1.0,,0.0,1.0,43.0,15.0,0.762,-0.2896958133120578,-3.0,-0.4250563957818539,-0.1889139536808239,-0.23614244210103
348,Pilot,d10012021,OH30k,interference,1.0,1.0,10.0,49.0,10.0,Hinda1.jpg,Stera1.jpg,20.0,20.0,1.0,,0.0,1.0,49.0,10.0,0.77,-0.2661970401156425,0.0,-0.11019980631381389,-0.11019980631381389,0.0
349,Pilot,d10012021,OH30k,interference,1.0,1.0,11.0,22.0,19.0,Macb1n.jpg,Macc1n.jpg,23.0,17.0,1.0,,0.0,1.0,22.0,19.0,1.642,2.295169238293627,6.0,0.12594263578721612,-0.3463422484148439,0.47228488420206005
350,Pilot,d10012021,OH30k,interference,1.0,1.0,12.0,45.0,55.0,Klia1n.jpg,Lewic1.jpg,20.0,16.0,1.0,,1.0,0.0,55.0,45.0,0.996,0.3976433026830902,4.0,-0.11019980631381389,-0.4250563957818539,0.31485658946804
351,Pilot,d10012021,OH30k,interference,1.0,1.0,13.0,8.0,59.0,Klina1.jpg,Kraa1n.jpg,24.0,17.0,1.0,,1.0,0.0,59.0,8.0,2.177,3.8666496958039014,7.0,0.2046567831542261,-0.3463422484148439,0.55099903156907
352,Pilot,d10012021,OH30k,interference,0.0,1.0,14.0,58.0,18.0,Mackc1.jpg,Krasb1.jpg,24.0,19.0,0.0,,,0.0,18.0,58.0,1.699,2.4625979973180865,5.0,0.2046567831542261,-0.1889139536808239,0.39357073683505
353,Pilot,d10012021,OH30k,interference,0.0,1.0,15.0,51.0,14.0,Gora1n.jpg,Kupkb1.jpg,21.0,23.0,0.0,,,0.0,14.0,51.0,0.689,-0.5041221187293478,-2.0,-0.031485658946803885,0.12594263578721612,-0.15742829473402
354,Pilot,d10012021,OH30k,interference,0.0,2.0,16.0,4.0,54.0,Mackb1.jpg,Kupka1.jpg,23.0,17.0,1.0,,,0.0,54.0,4.0,0.641,-0.6451147579078395,6.0,0.12594263578721612,-0.3463422484148439,0.47228488420206005
355,Pilot,d10012021,OH30k,interference,1.0,2.0,17.0,43.0,15.0,Picac1.jpg,Clia1n.jpg,16.0,19.0,0.0,,0.0,1.0,43.0,15.0,0.644,-0.6363027179591837,-3.0,-0.4250563957818539,-0.1889139536808239,-0.23614244210103
356,Pilot,d10012021,OH30k,interference,0.0,2.0,18.0,17.0,47.0,Picab1.jpg,Kupkd1.jpg,23.0,18.0,1.0,,,1.0,17.0,47.0,0.588,-0.8007941303340911,5.0,0.12594263578721612,-0.2676281010478339,0.39357073683505006
357,Pilot,d10012021,OH30k,interference,0.0,2.0,19.0,58.0,18.0,Mackc1.jpg,Krasb1.jpg,24.0,19.0,1.0,,,0.0,18.0,58.0,0.692,-0.49531007878069205,5.0,0.2046567831542261,-0.1889139536808239,0.39357073683505
358,Pilot,d10012021,OH30k,interference,1.0,2.0,20.0,49.0,10.0,Hinda1.jpg,Stera1.jpg,20.0,20.0,0.0,,0.0,1.0,49.0,10.0,0.836,-0.07233216124521626,0.0,-0.11019980631381389,-0.11019980631381389,0.0
359,Pilot,d10012021,OH30k,interference,0.0,2.0,21.0,5.0,53.0,Kupb1n.jpg,Gorka1.jpg,22.0,18.0,1.0,,,1.0,5.0,53.0,0.62,-0.7067990375484298,4.0,0.04722848842020611,-0.2676281010478339,0.31485658946804
360,Pilot,d10012021,OH30k,interference,1.0,2.0,22.0,8.0,59.0,Klina1.jpg,Kraa1n.jpg,24.0,17.0,0.0,,1.0,0.0,59.0,8.0,0.835,-0.07526950789476816,7.0,0.2046567831542261,-0.3463422484148439,0.55099903156907
361,Pilot,d10012021,OH30k,interference,1.0,2.0,23.0,7.0,25.0,Pica1n.jpg,Clifa1.jpg,23.0,21.0,0.0,,1.0,0.0,25.0,7.0,0.776,-0.24857296021833097,2.0,0.12594263578721612,-0.031485658946803885,0.15742829473402
362,Pilot,d10012021,OH30k,interference,0.0,2.0,24.0,33.0,11.0,Kupc1n.jpg,Wdekb1.jpg,21.0,19.0,1.0,,,1.0,33.0,11.0,0.597,-0.7743580104881238,2.0,-0.031485658946803885,-0.1889139536808239,0.15742829473402
363,Pilot,d10012021,OH30k,interference,0.0,2.0,25.0,44.0,27.0,Lassf1.jpg,Vinb1n.jpg,19.0,17.0,1.0,,,1.0,44.0,27.0,0.619,-0.7097363841979817,2.0,-0.1889139536808239,-0.3463422484148439,0.15742829473402
364,Pilot,d10012021,OH30k,interference,1.0,2.0,26.0,22.0,19.0,Macb1n.jpg,Macc1n.jpg,23.0,17.0,0.0,,0.0,1.0,22.0,19.0,0.802,-0.17220194732998112,6.0,0.12594263578721612,-0.3463422484148439,0.47228488420206005
365,Pilot,d10012021,OH30k,interference,0.0,2.0,27.0,51.0,14.0,Gora1n.jpg,Kupkb1.jpg,21.0,23.0,1.0,,,0.0,14.0,51.0,0.715,-0.4277511058409979,-2.0,-0.031485658946803885,0.12594263578721612,-0.15742829473402
366,Pilot,d10012021,OH30k,interference,1.0,2.0,28.0,35.0,2.0,Wdeka1.jpg,Dekob1.jpg,17.0,17.0,0.0,,1.0,0.0,2.0,35.0,0.882,0.06278578463417195,0.0,-0.3463422484148439,-0.3463422484148439,0.0
367,Pilot,d10012021,OH30k,interference,1.0,2.0,29.0,50.0,36.0,Gorke1.jpg,Gorkf1.jpg,20.0,16.0,0.0,,0.0,1.0,50.0,36.0,0.651,-0.6157412914123204,4.0,-0.11019980631381389,-0.4250563957818539,0.31485658946804
368,Pilot,d10012021,OH30k,interference,1.0,2.0,30.0,45.0,55.0,Klia1n.jpg,Lewic1.jpg,20.0,16.0,0.0,,1.0,0.0,55.0,45.0,0.617,-0.7156110774970855,4.0,-0.11019980631381389,-0.4250563957818539,0.31485658946804
369,Pilot,d10012021,OH30k,interference,0.0,2.0,31.0,39.0,34.0,Dekb1n.jpg,Monb1n.jpg,17.0,19.0,1.0,,,0.0,34.0,39.0,0.873,0.03634966478820469,-2.0,-0.3463422484148439,-0.1889139536808239,-0.15742829473402
370,Pilot,d10012021,OH30k,interference,0.0,3.0,32.0,33.0,11.0,Kupc1n.jpg,Wdekb1.jpg,21.0,19.0,0.0,,,1.0,33.0,11.0,0.803,-0.1692646006804292,2.0,-0.031485658946803885,-0.1889139536808239,0.15742829473402
371,Pilot,d10012021,OH30k,interference,1.0,3.0,33.0,7.0,25.0,Pica1n.jpg,Clifa1.jpg,23.0,21.0,0.0,,1.0,0.0,25.0,7.0,0.618,-0.7126737308475336,2.0,0.12594263578721612,-0.031485658946803885,0.15742829473402
372,Pilot,d10012021,OH30k,interference,1.0,3.0,34.0,49.0,10.0,Hinda1.jpg,Stera1.jpg,20.0,20.0,0.0,,0.0,1.0,49.0,10.0,0.65,-0.6186786380618723,0.0,-0.11019980631381389,-0.11019980631381389,0.0
373,Pilot,d10012021,OH30k,interference,1.0,3.0,35.0,35.0,2.0,Wdeka1.jpg,Dekob1.jpg,17.0,17.0,0.0,,1.0,0.0,2.0,35.0,0.828,-0.09583093444163159,0.0,-0.3463422484148439,-0.3463422484148439,0.0
374,Pilot,d10012021,OH30k,interference,1.0,3.0,36.0,22.0,19.0,Macb1n.jpg,Macc1n.jpg,23.0,17.0,0.0,,0.0,1.0,22.0,19.0,1.004,0.42114207587950553,6.0,0.12594263578721612,-0.3463422484148439,0.47228488420206005
375,Pilot,d10012021,OH30k,interference,1.0,3.0,37.0,45.0,55.0,Klia1n.jpg,Lewic1.jpg,20.0,16.0,0.0,,1.0,0.0,55.0,45.0,0.651,-0.6157412914123204,4.0,-0.11019980631381389,-0.4250563957818539,0.31485658946804
376,Pilot,d10012021,OH30k,interference,1.0,3.0,38.0,50.0,36.0,Gorke1.jpg,Gorkf1.jpg,20.0,16.0,0.0,,0.0,1.0,50.0,36.0,0.715,-0.4277511058409979,4.0,-0.11019980631381389,-0.4250563957818539,0.31485658946804
377,Pilot,d10012021,OH30k,interference,1.0,3.0,39.0,8.0,59.0,Klina1.jpg,Kraa1n.jpg,24.0,17.0,0.0,,1.0,0.0,59.0,8.0,0.843,-0.05177073469835283,7.0,0.2046567831542261,-0.3463422484148439,0.55099903156907
378,Pilot,d10012021,OH30k,interference,0.0,3.0,40.0,51.0,14.0,Gora1n.jpg,Kupkb1.jpg,21.0,23.0,0.0,,,0.0,14.0,51.0,0.73,-0.38369090609771916,-2.0,-0.031485658946803885,0.12594263578721612,-0.15742829473402
379,Pilot,d10012021,OH30k,interference,1.0,3.0,41.0,43.0,15.0,Picac1.jpg,Clia1n.jpg,16.0,19.0,0.0,,0.0,1.0,43.0,15.0,0.634,-0.6656761844547029,-3.0,-0.4250563957818539,-0.1889139536808239,-0.23614244210103
380,Pilot,d10012021,OH30k,interference,0.0,3.0,42.0,5.0,53.0,Kupb1n.jpg,Gorka1.jpg,22.0,18.0,0.0,,,1.0,5.0,53.0,0.986,0.36826983618757103,4.0,0.04722848842020611,-0.2676281010478339,0.31485658946804
381,Pilot,d10012021,OH30k,interference,0.0,3.0,43.0,17.0,47.0,Picab1.jpg,Kupkd1.jpg,23.0,18.0,0.0,,,1.0,17.0,47.0,0.811,-0.14576582748401387,5.0,0.12594263578721612,-0.2676281010478339,0.39357073683505006
382,Pilot,d10012021,OH30k,interference,0.0,3.0,44.0,39.0,34.0,Dekb1n.jpg,Monb1n.jpg,17.0,19.0,0.0,,,0.0,34.0,39.0,0.989,0.3770818761362268,-2.0,-0.3463422484148439,-0.1889139536808239,-0.15742829473402
383,Pilot,d10012021,OH30k,interference,0.0,3.0,45.0,58.0,18.0,Mackc1.jpg,Krasb1.jpg,24.0,19.0,0.0,,,0.0,18.0,58.0,0.812,-0.14282848083446195,5.0,0.2046567831542261,-0.1889139536808239,0.39357073683505
384,Pilot,d10012021,OH30k,interference,0.0,3.0,46.0,44.0,27.0,Lassf1.jpg,Vinb1n.jpg,19.0,17.0,0.0,,,1.0,44.0,27.0,0.564,-0.8712904499233372,2.0,-0.1889139536808239,-0.3463422484148439,0.15742829473402
385,Pilot,d10012021,OH30k,interference,0.0,3.0,47.0,4.0,54.0,Mackb1.jpg,Kupka1.jpg,23.0,17.0,0.0,,,0.0,54.0,4.0,0.612,-0.7302978107448451,6.0,0.12594263578721612,-0.3463422484148439,0.47228488420206005
386,Pilot,d09302021,c4z0I,interference,1.0,1.0,0.0,57.0,41.0,Lewc1n.jpg,Vincb1.jpg,66.0,35.0,1.0,,1.0,1.0,57.0,41.0,1.44,1.1989066300991407,31.0,0.5138328376316631,-0.9147607019720639,1.428593539603727
387,Pilot,d09302021,c4z0I,interference,0.0,1.0,1.0,44.0,13.0,Lassf1.jpg,Picak1.jpg,36.0,65.0,0.0,,,0.0,13.0,44.0,1.164,0.5004099927996365,-29.0,-0.8686770394042018,0.46774917506380087,-1.3364262144680028
388,Pilot,d09302021,c4z0I,interference,1.0,1.0,2.0,42.0,1.0,Picc1n.jpg,Lewia1.jpg,63.0,68.0,1.0,,1.0,0.0,1.0,42.0,0.755,-0.5346810385608602,-5.0,0.3755818499280766,0.6060001627673873,-0.23041831283931075
389,Pilot,d09302021,c4z0I,interference,0.0,1.0,3.0,32.0,29.0,Macka1.jpg,Clifb1.jpg,64.0,43.0,0.0,,,1.0,32.0,29.0,0.797,-0.42838807201528345,21.0,0.4216655124959387,-0.5460914014291667,0.9677569139251054
390,Pilot,d09302021,c4z0I,interference,1.0,1.0,4.0,40.0,30.0,Krab1n.jpg,Lasse1.jpg,34.0,36.0,1.0,,0.0,1.0,40.0,30.0,2.153,3.0033562764561927,-2.0,-0.9608443645399262,-0.8686770394042018,-0.09216732513572434
391,Pilot,d09302021,c4z0I,interference,1.0,1.0,5.0,46.0,36.0,Deka1n.jpg,Gorkf1.jpg,61.0,69.0,1.0,,0.0,1.0,46.0,36.0,2.777,4.582566065133332,-8.0,0.28341452479235224,0.6520838253352496,-0.3686693005428973
392,Pilot,d09302021,c4z0I,interference,0.0,1.0,6.0,47.0,55.0,Kupkd1.jpg,Lewic1.jpg,64.0,72.0,0.0,,,0.0,55.0,47.0,0.979,0.03221478301554876,-8.0,0.4216655124959387,0.790334813038836,-0.3686693005428973
393,Pilot,d09302021,c4z0I,interference,0.0,1.0,7.0,23.0,16.0,Lewib1.jpg,Lewa1n.jpg,75.0,67.0,0.0,,,0.0,16.0,23.0,0.87,-0.24364077301940026,8.0,0.9285858007424225,0.5599165001995252,0.36866930054289726
394,Pilot,d09302021,c4z0I,interference,0.0,1.0,8.0,27.0,58.0,Vinb1n.jpg,Mackc1.jpg,32.0,43.0,0.0,,,0.0,58.0,27.0,0.922,-0.11203995729630518,-11.0,-1.0530116896756505,-0.5460914014291667,-0.5069202882464838
395,Pilot,d09302021,c4z0I,interference,1.0,1.0,9.0,5.0,37.0,Kupb1n.jpg,Mondb1.jpg,74.0,77.0,1.0,,1.0,0.0,37.0,5.0,0.952,-0.036116409763750607,-3.0,0.8825021381745604,1.0207531258781468,-0.13825098770358646
396,Pilot,d09302021,c4z0I,interference,1.0,1.0,10.0,28.0,54.0,Krasa1.jpg,Kupka1.jpg,67.0,64.0,1.0,,1.0,0.0,54.0,28.0,0.882,-0.21327135400637834,3.0,0.5599165001995252,0.4216655124959387,0.13825098770358651
397,Pilot,d09302021,c4z0I,interference,0.0,1.0,11.0,31.0,0.0,Maca1n.jpg,Gorkc1.jpg,64.0,37.0,0.0,,,0.0,0.0,31.0,0.674,-0.7396746168987581,27.0,0.4216655124959387,-0.8225933768363397,1.2442588893322784
398,Pilot,d09302021,c4z0I,interference,1.0,1.0,12.0,33.0,24.0,Kupc1n.jpg,Dekoa1.jpg,77.0,76.0,1.0,,0.0,1.0,33.0,24.0,0.741,-0.5701120274093858,1.0,1.0207531258781468,0.9746694633102847,0.046083662567862116
399,Pilot,d09302021,c4z0I,interference,0.0,1.0,13.0,49.0,17.0,Hinda1.jpg,Picab1.jpg,32.0,72.0,0.0,,,0.0,17.0,49.0,0.848,-0.2993180412099405,-40.0,-1.0530116896756505,0.790334813038836,-1.8433465027144864
400,Pilot,d09302021,c4z0I,interference,0.0,1.0,14.0,2.0,39.0,Dekob1.jpg,Dekb1n.jpg,32.0,69.0,0.0,,,0.0,39.0,2.0,0.858,-0.2740101920324222,-37.0,-1.0530116896756505,0.6520838253352496,-1.7050955150109002
401,Pilot,d09302021,c4z0I,interference,1.0,1.0,15.0,48.0,10.0,Picb1n.jpg,Stera1.jpg,38.0,35.0,1.0,,0.0,1.0,48.0,10.0,0.856,-0.27907176186792587,3.0,-0.7765097142684775,-0.9147607019720639,0.13825098770358646
402,Pilot,d09302021,c4z0I,interference,0.0,2.0,16.0,27.0,58.0,Vinb1n.jpg,Mackc1.jpg,32.0,43.0,1.0,,,0.0,58.0,27.0,0.962,-0.010808560586232323,-11.0,-1.0530116896756505,-0.5460914014291667,-0.5069202882464838
403,Pilot,d09302021,c4z0I,interference,1.0,2.0,17.0,46.0,36.0,Deka1n.jpg,Gorkf1.jpg,61.0,69.0,0.0,,0.0,1.0,46.0,36.0,1.21,0.6168260990162205,-8.0,0.28341452479235224,0.6520838253352496,-0.3686693005428973
404,Pilot,d09302021,c4z0I,interference,1.0,2.0,18.0,5.0,37.0,Kupb1n.jpg,Mondb1.jpg,74.0,77.0,0.0,,1.0,1.0,5.0,37.0,1.217,0.6345415934404837,-3.0,0.8825021381745604,1.0207531258781468,-0.13825098770358646
405,Pilot,d09302021,c4z0I,interference,1.0,2.0,19.0,40.0,30.0,Krab1n.jpg,Lasse1.jpg,34.0,36.0,0.0,,0.0,1.0,40.0,30.0,1.126,0.404240165925067,-2.0,-0.9608443645399262,-0.8686770394042018,-0.09216732513572434
406,Pilot,d09302021,c4z0I,interference,1.0,2.0,20.0,42.0,1.0,Picc1n.jpg,Lewia1.jpg,63.0,68.0,0.0,,1.0,0.0,1.0,42.0,0.68,-0.7244899073922472,-5.0,0.3755818499280766,0.6060001627673873,-0.23041831283931075
407,Pilot,d09302021,c4z0I,interference,1.0,2.0,21.0,48.0,10.0,Picb1n.jpg,Stera1.jpg,38.0,35.0,0.0,,0.0,1.0,48.0,10.0,0.835,-0.33221824514071424,3.0,-0.7765097142684775,-0.9147607019720639,0.13825098770358646
408,Pilot,d09302021,c4z0I,interference,0.0,2.0,22.0,31.0,0.0,Maca1n.jpg,Gorkc1.jpg,64.0,37.0,1.0,,,1.0,31.0,0.0,1.23,0.6674417973712572,27.0,0.4216655124959387,-0.8225933768363397,1.2442588893322784
409,Pilot,d09302021,c4z0I,interference,0.0,2.0,23.0,32.0,29.0,Macka1.jpg,Clifb1.jpg,64.0,43.0,1.0,,,1.0,32.0,29.0,0.789,-0.4486343513572981,21.0,0.4216655124959387,-0.5460914014291667,0.9677569139251054
410,Pilot,d09302021,c4z0I,interference,0.0,2.0,24.0,47.0,55.0,Kupkd1.jpg,Lewic1.jpg,64.0,72.0,1.0,,,1.0,47.0,55.0,1.689,1.8290720746193456,-8.0,0.4216655124959387,0.790334813038836,-0.3686693005428973
411,Pilot,d09302021,c4z0I,interference,0.0,2.0,25.0,44.0,13.0,Lassf1.jpg,Picak1.jpg,36.0,65.0,1.0,,,0.0,13.0,44.0,0.861,-0.26641783727916674,-29.0,-0.8686770394042018,0.46774917506380087,-1.3364262144680028
412,Pilot,d09302021,c4z0I,interference,0.0,2.0,26.0,23.0,16.0,Lewib1.jpg,Lewa1n.jpg,75.0,67.0,1.0,,,0.0,16.0,23.0,0.744,-0.5625196726561303,8.0,0.9285858007424225,0.5599165001995252,0.36866930054289726
413,Pilot,d09302021,c4z0I,interference,1.0,2.0,27.0,33.0,24.0,Kupc1n.jpg,Dekoa1.jpg,77.0,76.0,0.0,,0.0,1.0,33.0,24.0,0.67,-0.7497977565697654,1.0,1.0207531258781468,0.9746694633102847,0.046083662567862116
414,Pilot,d09302021,c4z0I,interference,0.0,2.0,28.0,2.0,39.0,Dekob1.jpg,Dekb1n.jpg,32.0,69.0,1.0,,,0.0,39.0,2.0,0.983,0.042337922686556076,-37.0,-1.0530116896756505,0.6520838253352496,-1.7050955150109002
415,Pilot,d09302021,c4z0I,interference,0.0,2.0,29.0,49.0,17.0,Hinda1.jpg,Picab1.jpg,32.0,72.0,1.0,,,0.0,17.0,49.0,0.869,-0.2461715579371521,-40.0,-1.0530116896756505,0.790334813038836,-1.8433465027144864
416,Pilot,d09302021,c4z0I,interference,1.0,2.0,30.0,57.0,41.0,Lewc1n.jpg,Vincb1.jpg,66.0,35.0,0.0,,1.0,1.0,57.0,41.0,1.15,0.46497900395111086,31.0,0.5138328376316631,-0.9147607019720639,1.428593539603727
417,Pilot,d09302021,c4z0I,interference,1.0,2.0,31.0,28.0,54.0,Krasa1.jpg,Kupka1.jpg,67.0,64.0,0.0,,1.0,0.0,54.0,28.0,0.765,-0.509373189383342,3.0,0.5599165001995252,0.4216655124959387,0.13825098770358651
418,Pilot,d09302021,c4z0I,interference,0.0,3.0,32.0,49.0,17.0,Hinda1.jpg,Picab1.jpg,32.0,72.0,0.0,,,0.0,17.0,49.0,1.317,0.8876200852156659,-40.0,-1.0530116896756505,0.790334813038836,-1.8433465027144864
419,Pilot,d09302021,c4z0I,interference,0.0,3.0,33.0,2.0,39.0,Dekob1.jpg,Dekb1n.jpg,32.0,69.0,0.0,,,0.0,39.0,2.0,0.971,0.011968503673534133,-37.0,-1.0530116896756505,0.6520838253352496,-1.7050955150109002
420,Pilot,d09302021,c4z0I,interference,1.0,3.0,34.0,5.0,37.0,Kupb1n.jpg,Mondb1.jpg,74.0,77.0,0.0,,1.0,0.0,37.0,5.0,1.092,0.3181934787215054,-3.0,0.8825021381745604,1.0207531258781468,-0.13825098770358646
421,Pilot,d09302021,c4z0I,interference,0.0,3.0,35.0,47.0,55.0,Kupkd1.jpg,Lewic1.jpg,64.0,72.0,0.0,,,1.0,47.0,55.0,0.792,-0.4410419966040426,-8.0,0.4216655124959387,0.790334813038836,-0.3686693005428973
422,Pilot,d09302021,c4z0I,interference,0.0,3.0,36.0,32.0,29.0,Macka1.jpg,Clifb1.jpg,64.0,43.0,0.0,,,1.0,32.0,29.0,0.66,-0.7751056057472837,21.0,0.4216655124959387,-0.5460914014291667,0.9677569139251054
423,Pilot,d09302021,c4z0I,interference,1.0,3.0,37.0,57.0,41.0,Lewc1n.jpg,Vincb1.jpg,66.0,35.0,0.0,,1.0,0.0,41.0,57.0,0.957,-0.023462485174991467,31.0,0.5138328376316631,-0.9147607019720639,1.428593539603727
424,Pilot,d09302021,c4z0I,interference,0.0,3.0,38.0,27.0,58.0,Vinb1n.jpg,Mackc1.jpg,32.0,43.0,0.0,,,0.0,58.0,27.0,0.85,-0.29425647137443683,-11.0,-1.0530116896756505,-0.5460914014291667,-0.5069202882464838
425,Pilot,d09302021,c4z0I,interference,1.0,3.0,39.0,40.0,30.0,Krab1n.jpg,Lasse1.jpg,34.0,36.0,0.0,,0.0,1.0,40.0,30.0,0.765,-0.509373189383342,-2.0,-0.9608443645399262,-0.8686770394042018,-0.09216732513572434
426,Pilot,d09302021,c4z0I,interference,1.0,3.0,40.0,42.0,1.0,Picc1n.jpg,Lewia1.jpg,63.0,68.0,0.0,,1.0,0.0,1.0,42.0,0.546,-1.063615086370992,-5.0,0.3755818499280766,0.6060001627673873,-0.23041831283931075
427,Pilot,d09302021,c4z0I,interference,0.0,3.0,41.0,23.0,16.0,Lewib1.jpg,Lewa1n.jpg,75.0,67.0,0.0,,,0.0,16.0,23.0,0.602,-0.9218911309768898,8.0,0.9285858007424225,0.5599165001995252,0.36866930054289726
428,Pilot,d09302021,c4z0I,interference,0.0,3.0,42.0,31.0,0.0,Maca1n.jpg,Gorkc1.jpg,64.0,37.0,0.0,,,1.0,31.0,0.0,0.658,-0.7801671755827874,27.0,0.4216655124959387,-0.8225933768363397,1.2442588893322784
429,Pilot,d09302021,c4z0I,interference,1.0,3.0,43.0,28.0,54.0,Krasa1.jpg,Kupka1.jpg,67.0,64.0,0.0,,1.0,0.0,54.0,28.0,0.761,-0.5194963290543493,3.0,0.5599165001995252,0.4216655124959387,0.13825098770358651
430,Pilot,d09302021,c4z0I,interference,1.0,3.0,44.0,48.0,10.0,Picb1n.jpg,Stera1.jpg,38.0,35.0,0.0,,0.0,0.0,10.0,48.0,0.923,-0.10950917237855336,3.0,-0.7765097142684775,-0.9147607019720639,0.13825098770358646
431,Pilot,d09302021,c4z0I,interference,1.0,3.0,45.0,46.0,36.0,Deka1n.jpg,Gorkf1.jpg,61.0,69.0,0.0,,0.0,1.0,46.0,36.0,0.715,-0.6359124352709334,-8.0,0.28341452479235224,0.6520838253352496,-0.3686693005428973
432,Pilot,d09302021,c4z0I,interference,1.0,3.0,46.0,33.0,24.0,Kupc1n.jpg,Dekoa1.jpg,77.0,76.0,0.0,,0.0,0.0,24.0,33.0,0.611,-0.8991140667171232,1.0,1.0207531258781468,0.9746694633102847,0.046083662567862116
433,Pilot,d09302021,c4z0I,interference,0.0,3.0,47.0,44.0,13.0,Lassf1.jpg,Picak1.jpg,36.0,65.0,0.0,,,0.0,13.0,44.0,0.713,-0.6409740051064371,-29.0,-0.8686770394042018,0.46774917506380087,-1.3364262144680028
434,Pilot,d09302021,h3ty7,interference,0.0,1.0,0.0,53.0,52.0,Gorka1.jpg,Picaa1.jpg,66.0,84.0,0.0,,,0.0,52.0,53.0,0.966,-0.500916390493285,-18.0,-0.06736213391834757,1.0693738759537719,-1.1367360098721195
435,Pilot,d09302021,h3ty7,interference,1.0,1.0,1.0,33.0,44.0,Kupc1n.jpg,Lassf1.jpg,57.0,78.0,1.0,,1.0,0.0,44.0,33.0,1.562,-0.18018639722488985,-21.0,-0.6357301388544073,0.6904618726630654,-1.3261920115174726
436,Pilot,d09302021,h3ty7,interference,0.0,1.0,2.0,23.0,35.0,Lewib1.jpg,Wdeka1.jpg,84.0,67.0,0.0,,,0.0,35.0,23.0,1.825,-0.03865621563162161,17.0,1.0693738759537719,-0.004210133369896499,1.0735840093236684
437,Pilot,d09302021,h3ty7,interference,1.0,1.0,3.0,12.0,51.0,Kupkc1.jpg,Gora1n.jpg,60.0,59.0,1.0,,0.0,1.0,12.0,51.0,1.125,-0.41535251645020643,1.0,-0.446274137209054,-0.5094261377575051,0.0631520005484511
438,Pilot,d09302021,h3ty7,interference,0.0,1.0,4.0,30.0,37.0,Lasse1.jpg,Mondb1.jpg,69.0,69.0,0.0,,,1.0,30.0,37.0,1.682,-0.11560988851313252,0.0,0.12209386772700566,0.12209386772700566,0.0
439,Pilot,d09302021,h3ty7,interference,1.0,1.0,5.0,18.0,0.0,Krasb1.jpg,Gorkc1.jpg,55.0,70.0,1.0,,1.0,0.0,0.0,18.0,2.068,0.09211121450968719,-15.0,-0.7620341399513094,0.18524586827545672,-0.9472800082267662
440,Pilot,d09302021,h3ty7,interference,0.0,1.0,6.0,29.0,10.0,Clifb1.jpg,Stera1.jpg,55.0,68.0,0.0,,,1.0,29.0,10.0,1.698,-0.10699968735156486,-13.0,-0.7620341399513094,0.058941867178554576,-0.820976007129864
441,Pilot,d09302021,h3ty7,interference,1.0,1.0,7.0,47.0,26.0,Kupkd1.jpg,Clib1n.jpg,68.0,54.0,1.0,,0.0,1.0,47.0,26.0,5.021,1.6812314663915173,14.0,0.058941867178554576,-0.8251861404997605,0.884128007678315
442,Pilot,d09302021,h3ty7,interference,0.0,1.0,8.0,54.0,3.0,Kupka1.jpg,Fogeg1.jpg,69.0,60.0,0.0,,,1.0,54.0,3.0,1.881,-0.008520511566134793,9.0,0.12209386772700566,-0.446274137209054,0.5683680049360597
443,Pilot,d09302021,h3ty7,interference,1.0,1.0,9.0,13.0,36.0,Picak1.jpg,Gorkf1.jpg,71.0,63.0,1.0,,1.0,0.0,36.0,13.0,7.189,2.8479137237839343,8.0,0.2483978688239078,-0.2568181355637008,0.5052160043876086
444,Pilot,d09302021,h3ty7,interference,1.0,1.0,10.0,11.0,25.0,Wdekb1.jpg,Clifa1.jpg,56.0,75.0,1.0,,1.0,0.0,25.0,11.0,6.983,2.7370573838287506,-19.0,-0.6988821394028584,0.5010058710177121,-1.1998880104205705
445,Pilot,d09302021,h3ty7,interference,1.0,1.0,11.0,16.0,5.0,Lewa1n.jpg,Kupb1n.jpg,80.0,79.0,1.0,,0.0,1.0,16.0,5.0,4.322,1.3050733031455304,1.0,0.8167658737599675,0.7536138732115164,0.06315200054845105
446,Pilot,d09302021,h3ty7,interference,0.0,1.0,12.0,27.0,1.0,Vinb1n.jpg,Lewia1.jpg,79.0,83.0,0.0,,,0.0,1.0,27.0,1.839,-0.031122289615249904,-4.0,0.7536138732115164,1.0062218754053207,-0.2526080021938043
447,Pilot,d09302021,h3ty7,interference,1.0,1.0,13.0,39.0,15.0,Dekb1n.jpg,Clia1n.jpg,79.0,58.0,1.0,,0.0,1.0,39.0,15.0,1.589,-0.1656566827647445,21.0,0.7536138732115164,-0.5725781383059562,1.3261920115174726
448,Pilot,d09302021,h3ty7,interference,0.0,1.0,14.0,59.0,28.0,Kraa1n.jpg,Krasa1.jpg,63.0,74.0,0.0,,,0.0,28.0,59.0,1.847,-0.026817189034466074,-11.0,-0.2568181355637008,0.43785387046926105,-0.6946720060329619
449,Pilot,d09302021,h3ty7,interference,0.0,1.0,15.0,57.0,14.0,Lewc1n.jpg,Kupkb1.jpg,64.0,63.0,0.0,,,1.0,57.0,14.0,0.956,-0.5062977662192648,1.0,-0.19366613501524974,-0.2568181355637008,0.06315200054845108
450,Pilot,d09302021,h3ty7,interference,1.0,2.0,16.0,39.0,15.0,Dekb1n.jpg,Clia1n.jpg,79.0,58.0,0.0,,0.0,1.0,39.0,15.0,1.009,-0.477776474871572,21.0,0.7536138732115164,-0.5725781383059562,1.3261920115174726
451,Pilot,d09302021,h3ty7,interference,1.0,2.0,17.0,13.0,36.0,Picak1.jpg,Gorkf1.jpg,71.0,63.0,0.0,,1.0,0.0,36.0,13.0,1.067,-0.4465644956608892,8.0,0.2483978688239078,-0.2568181355637008,0.5052160043876086
452,Pilot,d09302021,h3ty7,interference,1.0,2.0,18.0,16.0,5.0,Lewa1n.jpg,Kupb1n.jpg,80.0,79.0,0.0,,0.0,1.0,16.0,5.0,1.174,-0.3889837753929055,1.0,0.8167658737599675,0.7536138732115164,0.06315200054845105
453,Pilot,d09302021,h3ty7,interference,1.0,2.0,19.0,11.0,25.0,Wdekb1.jpg,Clifa1.jpg,56.0,75.0,0.0,,1.0,0.0,25.0,11.0,1.039,-0.4616323476936326,-19.0,-0.6988821394028584,0.5010058710177121,-1.1998880104205705
454,Pilot,d09302021,h3ty7,interference,0.0,2.0,20.0,30.0,37.0,Lasse1.jpg,Mondb1.jpg,69.0,69.0,1.0,,,1.0,30.0,37.0,1.094,-0.43203478120074373,0.0,0.12209386772700566,0.12209386772700566,0.0
455,Pilot,d09302021,h3ty7,interference,0.0,2.0,21.0,23.0,35.0,Lewib1.jpg,Wdeka1.jpg,84.0,67.0,1.0,,,0.0,35.0,23.0,1.917,0.010852441047392443,17.0,1.0693738759537719,-0.004210133369896499,1.0735840093236684
456,Pilot,d09302021,h3ty7,interference,0.0,2.0,22.0,53.0,52.0,Gorka1.jpg,Picaa1.jpg,66.0,84.0,1.0,,,0.0,52.0,53.0,0.637,-0.6779636518780199,-18.0,-0.06736213391834757,1.0693738759537719,-1.1367360098721195
457,Pilot,d09302021,h3ty7,interference,1.0,2.0,23.0,47.0,26.0,Kupkd1.jpg,Clib1n.jpg,68.0,54.0,0.0,,0.0,1.0,47.0,26.0,1.136,-0.4094330031516287,14.0,0.058941867178554576,-0.8251861404997605,0.884128007678315
458,Pilot,d09302021,h3ty7,interference,0.0,2.0,24.0,29.0,10.0,Clifb1.jpg,Stera1.jpg,55.0,68.0,1.0,,,1.0,29.0,10.0,0.842,-0.5676454494954344,-13.0,-0.7620341399513094,0.058941867178554576,-0.820976007129864
459,Pilot,d09302021,h3ty7,interference,0.0,2.0,25.0,54.0,3.0,Kupka1.jpg,Fogeg1.jpg,69.0,60.0,1.0,,,1.0,54.0,3.0,1.273,-0.33570815570570567,9.0,0.12209386772700566,-0.446274137209054,0.5683680049360597
460,Pilot,d09302021,h3ty7,interference,1.0,2.0,26.0,33.0,44.0,Kupc1n.jpg,Lassf1.jpg,57.0,78.0,0.0,,1.0,0.0,44.0,33.0,7.128,2.815087331855458,-21.0,-0.6357301388544073,0.6904618726630654,-1.3261920115174726
461,Pilot,d09302021,h3ty7,interference,0.0,2.0,27.0,57.0,14.0,Lewc1n.jpg,Kupkb1.jpg,64.0,63.0,1.0,,,1.0,57.0,14.0,0.816,-0.5816370263829816,1.0,-0.19366613501524974,-0.2568181355637008,0.06315200054845108
462,Pilot,d09302021,h3ty7,interference,1.0,2.0,28.0,12.0,51.0,Kupkc1.jpg,Gora1n.jpg,60.0,59.0,0.0,,0.0,1.0,12.0,51.0,1.281,-0.33140305512492185,1.0,-0.446274137209054,-0.5094261377575051,0.0631520005484511
463,Pilot,d09302021,h3ty7,interference,1.0,2.0,29.0,18.0,0.0,Krasb1.jpg,Gorkc1.jpg,55.0,70.0,0.0,,1.0,0.0,0.0,18.0,0.733,-0.626302444908614,-15.0,-0.7620341399513094,0.18524586827545672,-0.9472800082267662
464,Pilot,d09302021,h3ty7,interference,0.0,2.0,30.0,27.0,1.0,Vinb1n.jpg,Lewia1.jpg,79.0,83.0,1.0,,,0.0,1.0,27.0,0.781,-0.600471841423911,-4.0,0.7536138732115164,1.0062218754053207,-0.2526080021938043
465,Pilot,d09302021,h3ty7,interference,0.0,2.0,31.0,59.0,28.0,Kraa1n.jpg,Krasa1.jpg,63.0,74.0,1.0,,,0.0,28.0,59.0,4.181,1.2291959054092156,-11.0,-0.2568181355637008,0.43785387046926105,-0.6946720060329619
466,Pilot,d09302021,h3ty7,interference,0.0,3.0,32.0,30.0,37.0,Lasse1.jpg,Mondb1.jpg,69.0,69.0,0.0,,,0.0,37.0,30.0,7.635,3.0879230811626326,0.0,0.12209386772700566,0.12209386772700566,0.0
467,Pilot,d09302021,h3ty7,interference,1.0,3.0,33.0,18.0,0.0,Krasb1.jpg,Gorkc1.jpg,55.0,70.0,0.0,,1.0,0.0,0.0,18.0,1.131,-0.41212369101461854,-15.0,-0.7620341399513094,0.18524586827545672,-0.9472800082267662
468,Pilot,d09302021,h3ty7,interference,1.0,3.0,34.0,33.0,44.0,Kupc1n.jpg,Lassf1.jpg,57.0,78.0,0.0,,1.0,0.0,44.0,33.0,1.029,-0.4670137234196124,-21.0,-0.6357301388544073,0.6904618726630654,-1.3261920115174726
469,Pilot,d09302021,h3ty7,interference,1.0,3.0,35.0,11.0,25.0,Wdekb1.jpg,Clifa1.jpg,56.0,75.0,0.0,,1.0,0.0,25.0,11.0,0.941,-0.5143698298082344,-19.0,-0.6988821394028584,0.5010058710177121,-1.1998880104205705
470,Pilot,d09302021,h3ty7,interference,0.0,3.0,36.0,59.0,28.0,Kraa1n.jpg,Krasa1.jpg,63.0,74.0,0.0,,,0.0,28.0,59.0,1.773,-0.06663936940671651,-11.0,-0.2568181355637008,0.43785387046926105,-0.6946720060329619
471,Pilot,d09302021,h3ty7,interference,0.0,3.0,37.0,27.0,1.0,Vinb1n.jpg,Lewia1.jpg,79.0,83.0,0.0,,,0.0,1.0,27.0,0.915,-0.5283614066957819,-4.0,0.7536138732115164,1.0062218754053207,-0.2526080021938043
472,Pilot,d09302021,h3ty7,interference,0.0,3.0,38.0,29.0,10.0,Clifb1.jpg,Stera1.jpg,55.0,68.0,0.0,,,1.0,29.0,10.0,0.699,-0.6445991223769452,-13.0,-0.7620341399513094,0.058941867178554576,-0.820976007129864
473,Pilot,d09302021,h3ty7,interference,1.0,3.0,39.0,13.0,36.0,Picak1.jpg,Gorkf1.jpg,71.0,63.0,0.0,,1.0,0.0,36.0,13.0,1.056,-0.4524840089594669,8.0,0.2483978688239078,-0.2568181355637008,0.5052160043876086
474,Pilot,d09302021,h3ty7,interference,1.0,3.0,40.0,39.0,15.0,Dekb1n.jpg,Clia1n.jpg,79.0,58.0,0.0,,0.0,1.0,39.0,15.0,0.87,-0.552577597462691,21.0,0.7536138732115164,-0.5725781383059562,1.3261920115174726
475,Pilot,d09302021,h3ty7,interference,1.0,3.0,41.0,16.0,5.0,Lewa1n.jpg,Kupb1n.jpg,80.0,79.0,0.0,,0.0,1.0,16.0,5.0,0.922,-0.524594443687596,1.0,0.8167658737599675,0.7536138732115164,0.06315200054845105
476,Pilot,d09302021,h3ty7,interference,1.0,3.0,42.0,12.0,51.0,Kupkc1.jpg,Gora1n.jpg,60.0,59.0,0.0,,0.0,1.0,12.0,51.0,0.789,-0.5961667408431272,1.0,-0.446274137209054,-0.5094261377575051,0.0631520005484511
477,Pilot,d09302021,h3ty7,interference,0.0,3.0,43.0,57.0,14.0,Lewc1n.jpg,Kupkb1.jpg,64.0,63.0,0.0,,,1.0,57.0,14.0,1.058,-0.45140773381427096,1.0,-0.19366613501524974,-0.2568181355637008,0.06315200054845108
478,Pilot,d09302021,h3ty7,interference,0.0,3.0,44.0,23.0,35.0,Lewib1.jpg,Wdeka1.jpg,84.0,67.0,0.0,,,0.0,35.0,23.0,0.862,-0.5568826980434748,17.0,1.0693738759537719,-0.004210133369896499,1.0735840093236684
479,Pilot,d09302021,h3ty7,interference,0.0,3.0,45.0,54.0,3.0,Kupka1.jpg,Fogeg1.jpg,69.0,60.0,0.0,,,1.0,54.0,3.0,0.767,-0.6080057674402826,9.0,0.12209386772700566,-0.446274137209054,0.5683680049360597
480,Pilot,d09302021,h3ty7,interference,0.0,3.0,46.0,53.0,52.0,Gorka1.jpg,Picaa1.jpg,66.0,84.0,0.0,,,0.0,52.0,53.0,1.068,-0.44602635808829116,-18.0,-0.06736213391834757,1.0693738759537719,-1.1367360098721195
481,Pilot,d09302021,h3ty7,interference,1.0,3.0,47.0,47.0,26.0,Kupkd1.jpg,Clib1n.jpg,68.0,54.0,0.0,,0.0,1.0,47.0,26.0,0.872,-0.5515013223174949,14.0,0.058941867178554576,-0.8251861404997605,0.884128007678315
482,Pilot,d10012021,11A0U,interference,1.0,1.0,0.0,37.0,42.0,Mondb1.jpg,Picc1n.jpg,36.0,20.0,1.0,,1.0,0.0,42.0,37.0,1.821,0.26159006510559774,16.0,-0.028982872038616898,-0.8721209677074765,0.8431380956688596
483,Pilot,d10012021,11A0U,interference,0.0,1.0,1.0,43.0,23.0,Picac1.jpg,Lewib1.jpg,58.0,58.0,0.0,,,0.0,23.0,43.0,1.456,-0.16493929186509257,0.0,1.130332009506065,1.130332009506065,0.0
484,Pilot,d10012021,11A0U,interference,0.0,1.0,2.0,17.0,19.0,Picab1.jpg,Macc1n.jpg,38.0,55.0,0.0,,,1.0,17.0,19.0,1.451,-0.17078215976880054,-17.0,0.07640938991999055,0.9722436165681538,-0.8958342266481633
485,Pilot,d10012021,11A0U,interference,0.0,1.0,3.0,45.0,40.0,Klia1n.jpg,Krab1n.jpg,59.0,20.0,0.0,,,1.0,45.0,40.0,1.096,-0.5856257809320746,39.0,1.1830281404853686,-0.8721209677074765,2.055149108192845
486,Pilot,d10012021,11A0U,interference,0.0,1.0,4.0,44.0,48.0,Lassf1.jpg,Picb1n.jpg,30.0,36.0,0.0,,,1.0,44.0,48.0,1.066,-0.6206829883543232,-6.0,-0.34515965791443926,-0.028982872038616898,-0.3161767858758224
487,Pilot,d10012021,11A0U,interference,1.0,1.0,5.0,3.0,8.0,Fogeg1.jpg,Klina1.jpg,37.0,24.0,1.0,,0.0,0.0,8.0,3.0,3.327,2.0214618777024733,13.0,0.023713258940686825,-0.6613364437902616,0.6850497027309485
488,Pilot,d10012021,11A0U,interference,1.0,1.0,6.0,56.0,9.0,Luisc1.jpg,Lassc1.jpg,30.0,42.0,1.0,,0.0,1.0,56.0,9.0,3.409,2.117284911323286,-12.0,-0.34515965791443926,0.28719391383720544,-0.6323535717516446
489,Pilot,d10012021,11A0U,interference,1.0,1.0,7.0,31.0,18.0,Maca1n.jpg,Krasb1.jpg,30.0,60.0,1.0,,1.0,1.0,31.0,18.0,3.138,1.8006014709423077,-30.0,-0.34515965791443926,1.2357242714646726,-1.580883929379112
