,Exp,group,PID,phase,trial,stimulus_id,painting,rt,rating,zscored_rt,zscored_rating
0,Pilot,d10012021,arjeO,rating,0.0,31.0,Maca1n.jpg,5.62,65.0,0.0709461499925087,0.7619397606514201
1,Pilot,d10012021,arjeO,rating,1.0,33.0,Kupc1n.jpg,5.526,52.0,-0.019643907955814402,0.19484719070093573
2,Pilot,d10012021,arjeO,rating,2.0,10.0,Stera1.jpg,5.385,33.0,-0.15552899487829863,-0.6339804115343876
3,Pilot,d10012021,arjeO,rating,3.0,58.0,Mackc1.jpg,6.244,72.0,0.6723099389260555,1.0672972983170654
4,Pilot,d10012021,arjeO,rating,4.0,11.0,Wdekb1.jpg,4.514,8.0,-0.9949326169313744,-1.7245430460545497
5,Pilot,d10012021,arjeO,rating,5.0,32.0,Macka1.jpg,4.668,56.0,-0.8465191177394413,0.36933721222416166
6,Pilot,d10012021,arjeO,rating,6.0,51.0,Gora1n.jpg,4.049,5.0,-1.4430642865693541,-1.8554105621969692
7,Pilot,d10012021,arjeO,rating,7.0,25.0,Clifa1.jpg,5.09,65.0,-0.43982758099271585,0.7619397606514201
8,Pilot,d10012021,arjeO,rating,8.0,45.0,Klia1n.jpg,8.306,45.0,2.6595088696647955,-0.11051034696470968
9,Pilot,d10012021,arjeO,rating,9.0,47.0,Kupkd1.jpg,5.852,55.0,0.2945301228011354,0.3257147068433552
10,Pilot,d10012021,arjeO,rating,10.0,55.0,Lewic1.jpg,5.311,79.0,-0.2268445724120845,1.3726548359827109
11,Pilot,d10012021,arjeO,rating,11.0,9.0,Lassc1.jpg,6.925,65.0,1.3286059970410324,0.7619397606514201
12,Pilot,d10012021,arjeO,rating,12.0,40.0,Krab1n.jpg,5.965,29.0,0.40343093714326766,-0.8084704330576135
13,Pilot,d10012021,arjeO,rating,13.0,5.0,Kupb1n.jpg,5.288,62.0,-0.24901022488880148,0.6310722445090006
14,Pilot,d10012021,arjeO,rating,14.0,22.0,Macb1n.jpg,5.708,37.0,0.15575386381647055,-0.4594903900111616
15,Pilot,d10012021,arjeO,rating,15.0,23.0,Lewib1.jpg,4.449,14.0,-1.0575746782786193,-1.4628080137697108
16,Pilot,d10012021,arjeO,rating,16.0,36.0,Gorkf1.jpg,4.522,26.0,-0.9872228247655597,-0.939337949200033
17,Pilot,d10012021,arjeO,rating,17.0,52.0,Picaa1.jpg,4.316,67.0,-1.1857499730352887,0.8491847714130331
18,Pilot,d10012021,arjeO,rating,18.0,19.0,Macc1n.jpg,5.735,65.0,0.18177441237609532,0.7619397606514201
19,Pilot,d10012021,arjeO,rating,19.0,56.0,Luisc1.jpg,5.896,44.0,0.3369339797131159,-0.15413285234551619
20,Pilot,d10012021,arjeO,rating,20.0,29.0,Clifb1.jpg,5.275,31.0,-0.26153863715825026,-0.7212254222960005
21,Pilot,d10012021,arjeO,rating,21.0,2.0,Dekob1.jpg,4.932,36.0,-0.5920959762675558,-0.5031128953919681
22,Pilot,d10012021,arjeO,rating,22.0,53.0,Gorka1.jpg,5.118,60.0,-0.41284330841236394,0.5438272337473876
23,Pilot,d10012021,arjeO,rating,23.0,42.0,Picc1n.jpg,4.493,17.0,-1.015170821366638,-1.3319404976272913
24,Pilot,d10012021,arjeO,rating,24.0,54.0,Kupka1.jpg,5.082,10.0,-0.4475373731585306,-1.6372980352929367
25,Pilot,d10012021,arjeO,rating,25.0,15.0,Clia1n.jpg,6.586,17.0,1.0019035540146346,-1.3319404976272913
26,Pilot,d10012021,arjeO,rating,26.0,59.0,Kraa1n.jpg,5.241,64.0,-0.29430525386296347,0.7183172552706136
27,Pilot,d10012021,arjeO,rating,27.0,35.0,Wdeka1.jpg,3.989,35.0,-1.5008877278129649,-0.5467354007727746
28,Pilot,d10012021,arjeO,rating,28.0,57.0,Lewc1n.jpg,5.178,22.0,-0.355019867168754,-1.113827970723259
29,Pilot,d10012021,arjeO,rating,29.0,18.0,Krasb1.jpg,4.416,57.0,-1.0893775709626043,0.4129597176049682
30,Pilot,d10012021,arjeO,rating,30.0,21.0,Lewb1n.jpg,5.379,58.0,-0.16131133900265987,0.45658222298577467
31,Pilot,d10012021,arjeO,rating,31.0,16.0,Lewa1n.jpg,5.306,37.0,-0.2316631925157186,-0.4594903900111616
32,Pilot,d10012021,arjeO,rating,32.0,14.0,Kupkb1.jpg,5.759,43.0,0.20490378887353944,-0.19775535772632266
33,Pilot,d10012021,arjeO,rating,33.0,39.0,Dekb1n.jpg,5.755,63.0,0.20104889279063168,0.6746947498898072
34,Pilot,d10012021,arjeO,rating,34.0,30.0,Lasse1.jpg,5.428,67.0,-0.11408886198704443,0.8491847714130331
35,Pilot,d10012021,arjeO,rating,35.0,50.0,Gorke1.jpg,4.475,33.0,-1.0325178537397217,-0.6339804115343876
36,Pilot,d10012021,arjeO,rating,36.0,49.0,Hinda1.jpg,5.027,66.0,-0.5005421942985064,0.8055622660322266
37,Pilot,d10012021,arjeO,rating,37.0,43.0,Picac1.jpg,6.179,72.0,0.6096678775788115,1.0672972983170654
38,Pilot,d10012021,arjeO,rating,38.0,34.0,Monb1n.jpg,6.123,17.0,0.5556993324181085,-1.3319404976272913
39,Pilot,d10012021,arjeO,rating,39.0,48.0,Picb1n.jpg,4.266,58.0,-1.2339361740716306,0.45658222298577467
40,Pilot,d10012021,arjeO,rating,40.0,46.0,Deka1n.jpg,8.775,55.0,3.111495435385684,0.3257147068433552
41,Pilot,d10012021,arjeO,rating,41.0,3.0,Fogeg1.jpg,8.589,80.0,2.932242767530492,1.4162773413635175
42,Pilot,d10012021,arjeO,rating,42.0,28.0,Krasa1.jpg,5.4,78.0,-0.1410731345673955,1.3290323306019045
43,Pilot,d10012021,arjeO,rating,43.0,17.0,Picab1.jpg,5.095,81.0,-0.43500896088908175,1.4598998467443238
44,Pilot,d10012021,arjeO,rating,44.0,1.0,Lewia1.jpg,5.701,73.0,0.14900779567138214,1.110919803697872
45,Pilot,d10012021,arjeO,rating,45.0,4.0,Mackb1.jpg,7.356,46.0,1.7439710499742997,-0.0668878415839032
46,Pilot,d10012021,arjeO,rating,46.0,12.0,Kupkc1.jpg,5.854,65.0,0.29645757084258884,0.7619397606514201
47,Pilot,d10012021,arjeO,rating,47.0,0.0,Gorkc1.jpg,4.816,6.0,-0.7038879626718696,-1.8117880568161628
48,Pilot,d10012021,arjeO,rating,48.0,24.0,Dekoa1.jpg,5.119,71.0,-0.41187958439163763,1.023674792936259
49,Pilot,d10012021,arjeO,rating,49.0,38.0,Lasc1n.jpg,4.638,10.0,-0.8754308383612468,-1.6372980352929367
50,Pilot,d10012021,arjeO,rating,50.0,41.0,Vincb1.jpg,5.878,46.0,0.319586947340033,-0.0668878415839032
51,Pilot,d10012021,arjeO,rating,51.0,20.0,Gorc1n.jpg,5.669,6.0,0.11816862700812328,-1.8117880568161628
52,Pilot,d10012021,arjeO,rating,52.0,6.0,Wdekc1.jpg,5.629,0.0,0.07961966617904971,-2.0735230891010015
53,Pilot,d10012021,arjeO,rating,53.0,27.0,Vinb1n.jpg,5.789,69.0,0.233815509495344,0.936429782174646
54,Pilot,d10012021,arjeO,rating,54.0,13.0,Picak1.jpg,7.533,39.0,1.9145502016429508,-0.3722453792495486
55,Pilot,d10012021,arjeO,rating,55.0,8.0,Klina1.jpg,5.163,57.0,-0.3694757274796563,0.4129597176049682
56,Pilot,d10012021,arjeO,rating,56.0,7.0,Pica1n.jpg,4.056,67.0,-1.4363182184242664,0.8491847714130331
57,Pilot,d10012021,arjeO,rating,57.0,26.0,Clib1n.jpg,5.151,69.0,-0.38104041572837877,0.936429782174646
58,Pilot,d10012021,arjeO,rating,58.0,44.0,Lassf1.jpg,6.286,64.0,0.7127863477965826,0.7183172552706136
59,Pilot,d10012021,arjeO,rating,59.0,37.0,Mondb1.jpg,6.91,63.0,1.3141501367301303,0.6746947498898072
60,Pilot,d10012021,A26v1,rating,0.0,34.0,Monb1n.jpg,4.617,82.0,0.6549240388106656,0.8401097387289401
61,Pilot,d10012021,A26v1,rating,1.0,35.0,Wdeka1.jpg,4.078,88.0,0.2957968635535839,1.095332950494694
62,Pilot,d10012021,A26v1,rating,2.0,13.0,Picak1.jpg,3.373,89.0,-0.17393348627246955,1.137870152455653
63,Pilot,d10012021,A26v1,rating,3.0,14.0,Kupkb1.jpg,3.299,83.0,-0.2232385158996016,0.8826469406898991
64,Pilot,d10012021,A26v1,rating,4.0,47.0,Kupkd1.jpg,4.341,80.0,0.47102960398514704,0.7550353348070221
65,Pilot,d10012021,A26v1,rating,5.0,41.0,Vincb1.jpg,4.022,66.0,0.2584849492411598,0.1595145073535962
66,Pilot,d10012021,A26v1,rating,6.0,43.0,Picac1.jpg,4.686,36.0,0.7008976475170453,-1.1166015514751735
67,Pilot,d10012021,A26v1,rating,7.0,52.0,Picaa1.jpg,3.614,61.0,-0.013358997892216064,-0.05317150245119874
68,Pilot,d10012021,A26v1,rating,8.0,49.0,Hinda1.jpg,3.126,80.0,-0.3385056797576261,0.7550353348070221
69,Pilot,d10012021,A26v1,rating,9.0,53.0,Gorka1.jpg,3.566,28.0,-0.04534063873143675,-1.4568991671628455
70,Pilot,d10012021,A26v1,rating,10.0,25.0,Clifa1.jpg,3.214,79.0,-0.27987267155238815,0.7124981328460631
71,Pilot,d10012021,A26v1,rating,11.0,6.0,Wdekc1.jpg,3.686,38.0,0.034613463366614965,-1.0315271475532555
72,Pilot,d10012021,A26v1,rating,12.0,24.0,Dekoa1.jpg,4.83,88.0,0.7968425700347074,1.095332950494694
73,Pilot,d10012021,A26v1,rating,13.0,21.0,Lewb1n.jpg,3.55,91.0,-0.056001185677843644,1.222944556377571
74,Pilot,d10012021,A26v1,rating,14.0,37.0,Mondb1.jpg,2.813,50.0,-0.5470526293967106,-0.5210807240217477
75,Pilot,d10012021,A26v1,rating,15.0,8.0,Klina1.jpg,3.014,50.0,-0.41312950838247436,-0.5210807240217477
76,Pilot,d10012021,A26v1,rating,16.0,50.0,Gorke1.jpg,2.693,50.0,-0.6270067314947623,-0.5210807240217477
77,Pilot,d10012021,A26v1,rating,17.0,26.0,Clib1n.jpg,3.686,60.0,0.034613463366614965,-0.09570870441215773
78,Pilot,d10012021,A26v1,rating,18.0,9.0,Lassc1.jpg,4.654,84.0,0.6795765536242315,0.925184142650858
79,Pilot,d10012021,A26v1,rating,19.0,40.0,Krab1n.jpg,3.014,76.0,-0.41312950838247436,0.5848865269631861
80,Pilot,d10012021,A26v1,rating,20.0,38.0,Lasc1n.jpg,3.262,65.0,-0.24789103071316748,0.11697730539263723
81,Pilot,d10012021,A26v1,rating,21.0,5.0,Kupb1n.jpg,3.118,91.0,-0.34383595323082955,1.222944556377571
82,Pilot,d10012021,A26v1,rating,22.0,33.0,Kupc1n.jpg,3.854,90.0,0.14654920630388737,1.180407354416612
83,Pilot,d10012021,A26v1,rating,23.0,58.0,Mackc1.jpg,3.182,20.0,-0.30119376544520193,-1.7971967828505173
84,Pilot,d10012021,A26v1,rating,24.0,23.0,Lewib1.jpg,2.886,100.0,-0.4984138839537292,1.6057793740262019
85,Pilot,d10012021,A26v1,rating,25.0,29.0,Clifb1.jpg,5.526,61.0,1.2605763622034067,-0.05317150245119874
86,Pilot,d10012021,A26v1,rating,26.0,27.0,Vinb1n.jpg,3.03,60.0,-0.4024689614360675,-0.09570870441215773
87,Pilot,d10012021,A26v1,rating,27.0,16.0,Lewa1n.jpg,4.478,64.0,0.5623105372137557,0.07444010343167823
88,Pilot,d10012021,A26v1,rating,28.0,28.0,Krasa1.jpg,2.918,73.0,-0.47709279006091543,0.45727492108030915
89,Pilot,d10012021,A26v1,rating,29.0,32.0,Macka1.jpg,3.286,74.0,-0.23190021029355712,0.49981212304126815
90,Pilot,d10012021,A26v1,rating,30.0,19.0,Macc1n.jpg,2.598,94.0,-0.6903037289890533,1.350556162260448
91,Pilot,d10012021,A26v1,rating,31.0,36.0,Gorkf1.jpg,2.775,31.0,-0.5723714283944271,-1.3292875612799684
92,Pilot,d10012021,A26v1,rating,32.0,39.0,Dekb1n.jpg,3.07,89.0,-0.3758175940700502,1.137870152455653
93,Pilot,d10012021,A26v1,rating,33.0,1.0,Lewia1.jpg,3.191,93.0,-0.29519720778784814,1.308018960299489
94,Pilot,d10012021,A26v1,rating,34.0,22.0,Macb1n.jpg,3.182,82.0,-0.30119376544520193,0.8401097387289401
95,Pilot,d10012021,A26v1,rating,35.0,15.0,Clia1n.jpg,3.767,38.0,0.0885824822827998,-1.0315271475532555
96,Pilot,d10012021,A26v1,rating,36.0,56.0,Luisc1.jpg,3.334,30.0,-0.19991856945433645,-1.3718247632409275
97,Pilot,d10012021,A26v1,rating,37.0,11.0,Wdekb1.jpg,3.447,19.0,-0.12462845664533781,-1.8397339848114764
98,Pilot,d10012021,A26v1,rating,38.0,44.0,Lassf1.jpg,3.382,91.0,-0.16793692861511575,1.222944556377571
99,Pilot,d10012021,A26v1,rating,39.0,45.0,Klia1n.jpg,2.71,39.0,-0.6156799003642051,-0.9889899455922966
100,Pilot,d10012021,A26v1,rating,40.0,20.0,Gorc1n.jpg,2.887,45.0,-0.4977475997695789,-0.7337667338265426
101,Pilot,d10012021,A26v1,rating,41.0,2.0,Dekob1.jpg,2.807,78.0,-0.5510503345016133,0.6699609308851041
102,Pilot,d10012021,A26v1,rating,42.0,57.0,Lewc1n.jpg,4.543,31.0,0.605619009183534,-1.3292875612799684
103,Pilot,d10012021,A26v1,rating,43.0,51.0,Gora1n.jpg,3.797,45.0,0.10857100780731288,-0.7337667338265426
104,Pilot,d10012021,A26v1,rating,44.0,0.0,Gorkc1.jpg,2.438,40.0,-0.796909198453122,-0.9464527436313376
105,Pilot,d10012021,A26v1,rating,45.0,3.0,Fogeg1.jpg,3.526,82.0,-0.07199200609745399,0.8401097387289401
106,Pilot,d10012021,A26v1,rating,46.0,54.0,Kupka1.jpg,5.302,66.0,1.1113287049537102,0.1595145073535962
107,Pilot,d10012021,A26v1,rating,47.0,48.0,Picb1n.jpg,3.75,77.0,0.07725565115224255,0.6274237289241451
108,Pilot,d10012021,A26v1,rating,48.0,59.0,Kraa1n.jpg,13.806,62.0,6.777409406968969,-0.010634300490239747
109,Pilot,d10012021,A26v1,rating,49.0,10.0,Stera1.jpg,2.79,41.0,-0.5623771656321706,-0.9039155416703786
110,Pilot,d10012021,A26v1,rating,50.0,7.0,Pica1n.jpg,3.774,85.0,0.0932464715718529,0.967721344611817
111,Pilot,d10012021,A26v1,rating,51.0,30.0,Lasse1.jpg,2.894,31.0,-0.4930836104805258,-1.3292875612799684
112,Pilot,d10012021,A26v1,rating,52.0,17.0,Picab1.jpg,2.982,24.0,-0.43445060227528787,-1.6270479750066815
113,Pilot,d10012021,A26v1,rating,53.0,55.0,Lewic1.jpg,3.15,71.0,-0.3225148593380157,0.3722005171583912
114,Pilot,d10012021,A26v1,rating,54.0,12.0,Kupkc1.jpg,3.046,82.0,-0.3918084144896606,0.8401097387289401
115,Pilot,d10012021,A26v1,rating,55.0,31.0,Maca1n.jpg,3.414,31.0,-0.14661583472230197,-1.3292875612799684
116,Pilot,d10012021,A26v1,rating,56.0,42.0,Picc1n.jpg,2.894,29.0,-0.4930836104805258,-1.4143619652018864
117,Pilot,d10012021,A26v1,rating,57.0,46.0,Deka1n.jpg,3.887,23.0,0.1685365843808515,-1.6695851769676404
118,Pilot,d10012021,A26v1,rating,58.0,4.0,Mackb1.jpg,2.982,65.0,-0.43445060227528787,0.11697730539263723
119,Pilot,d10012021,A26v1,rating,59.0,18.0,Krasb1.jpg,2.502,64.0,-0.7542670106674947,0.07444010343167823
120,Pilot,d10012021,eoRdQ,rating,0.0,1.0,Lewia1.jpg,4.306,70.0,0.7176009777963032,0.03756366025810563
121,Pilot,d10012021,eoRdQ,rating,1.0,26.0,Clib1n.jpg,7.787,61.0,2.8283228714214697,-0.44539768591753626
122,Pilot,d10012021,eoRdQ,rating,2.0,24.0,Dekoa1.jpg,3.634,58.0,0.3101303910349955,-0.606384801309417
123,Pilot,d10012021,eoRdQ,rating,3.0,30.0,Lasse1.jpg,2.667,32.0,-0.27621493247420753,-2.001606468039049
124,Pilot,d10012021,eoRdQ,rating,4.0,15.0,Clia1n.jpg,3.284,73.0,0.09790612709681444,0.19855077564998627
125,Pilot,d10012021,eoRdQ,rating,5.0,44.0,Lassf1.jpg,4.183,32.0,0.6430193078980281,-2.001606468039049
126,Pilot,d10012021,eoRdQ,rating,6.0,18.0,Krasb1.jpg,3.394,67.0,0.16460518147738581,-0.123423455133775
127,Pilot,d10012021,eoRdQ,rating,7.0,40.0,Krab1n.jpg,2.707,74.0,-0.2519607308812726,0.2522131474472798
128,Pilot,d10012021,eoRdQ,rating,8.0,10.0,Stera1.jpg,2.838,68.0,-0.17252822066441037,-0.06976108333648146
129,Pilot,d10012021,eoRdQ,rating,9.0,3.0,Fogeg1.jpg,3.04,89.0,-0.05004450262008877,1.057148724406683
130,Pilot,d10012021,eoRdQ,rating,10.0,47.0,Kupkd1.jpg,3.324,98.0,0.12216032868974944,1.540110070582325
131,Pilot,d10012021,eoRdQ,rating,11.0,56.0,Luisc1.jpg,5.659,58.0,1.5379993466773285,-0.606384801309417
132,Pilot,d10012021,eoRdQ,rating,12.0,34.0,Monb1n.jpg,2.457,69.0,-0.40354949083711616,-0.01609871153918791
133,Pilot,d10012021,eoRdQ,rating,13.0,55.0,Lewic1.jpg,2.498,78.0,-0.37868893420435756,0.466862634636454
134,Pilot,d10012021,eoRdQ,rating,14.0,12.0,Kupkc1.jpg,2.682,70.0,-0.2671196068768569,0.03756366025810563
135,Pilot,d10012021,eoRdQ,rating,15.0,43.0,Picac1.jpg,2.777,63.0,-0.20951587809363617,-0.3380729423229492
136,Pilot,d10012021,eoRdQ,rating,16.0,2.0,Dekob1.jpg,3.426,66.0,0.1840085427517338,-0.17708582693106856
137,Pilot,d10012021,eoRdQ,rating,17.0,4.0,Mackb1.jpg,2.55,85.0,-0.34715847213354234,0.8424992372175089
138,Pilot,d10012021,eoRdQ,rating,18.0,52.0,Picaa1.jpg,2.676,68.0,-0.270757737115797,-0.06976108333648146
139,Pilot,d10012021,eoRdQ,rating,19.0,48.0,Picb1n.jpg,2.176,80.0,-0.5739352570274842,0.574187378231041
140,Pilot,d10012021,eoRdQ,rating,20.0,11.0,Wdekb1.jpg,2.989,29.0,-0.08096860965108096,-2.1625935834309296
141,Pilot,d10012021,eoRdQ,rating,21.0,27.0,Vinb1n.jpg,4.591,69.0,0.890412164145965,-0.01609871153918791
142,Pilot,d10012021,eoRdQ,rating,22.0,57.0,Lewc1n.jpg,6.091,66.0,1.7999447238810267,-0.17708582693106856
143,Pilot,d10012021,eoRdQ,rating,23.0,25.0,Clifa1.jpg,4.004,95.0,0.5344817557696439,1.3791229551904443
144,Pilot,d10012021,eoRdQ,rating,24.0,54.0,Kupka1.jpg,2.12,98.0,-0.6078911392575932,1.540110070582325
145,Pilot,d10012021,eoRdQ,rating,25.0,22.0,Macb1n.jpg,2.012,97.0,-0.6733774835585177,1.4864476987850315
146,Pilot,d10012021,eoRdQ,rating,26.0,45.0,Klia1n.jpg,1.69,72.0,-0.8686238063816443,0.14488840385269272
147,Pilot,d10012021,eoRdQ,rating,27.0,20.0,Gorc1n.jpg,3.294,34.0,0.10396967749504833,-1.894281724444462
148,Pilot,d10012021,eoRdQ,rating,28.0,35.0,Wdeka1.jpg,3.55,59.0,0.259196567689832,-0.5527224295121234
149,Pilot,d10012021,eoRdQ,rating,29.0,50.0,Gorke1.jpg,3.707,38.0,0.35439430894210183,-1.6796322372552879
150,Pilot,d10012021,eoRdQ,rating,30.0,33.0,Kupc1n.jpg,2.024,71.0,-0.6661012230806371,0.09122603205539918
151,Pilot,d10012021,eoRdQ,rating,31.0,37.0,Mondb1.jpg,2.638,84.0,-0.29379922862908536,0.7888368654202152
152,Pilot,d10012021,eoRdQ,rating,32.0,7.0,Pica1n.jpg,2.981,38.0,-0.08581944996966796,-1.6796322372552879
153,Pilot,d10012021,eoRdQ,rating,33.0,0.0,Gorkc1.jpg,3.447,37.0,0.19674199858802463,-1.7332946090525814
154,Pilot,d10012021,eoRdQ,rating,34.0,51.0,Gora1n.jpg,12.411,75.0,5.632108575564752,0.30587551924457335
155,Pilot,d10012021,eoRdQ,rating,35.0,17.0,Picab1.jpg,2.261,61.0,-0.5223950786424973,-0.44539768591753626
156,Pilot,d10012021,eoRdQ,rating,36.0,59.0,Kraa1n.jpg,2.841,95.0,-0.17070915554494018,1.3791229551904443
157,Pilot,d10012021,eoRdQ,rating,37.0,8.0,Klina1.jpg,2.098,62.0,-0.6212309501337075,-0.39173531412024276
158,Pilot,d10012021,eoRdQ,rating,38.0,21.0,Lewb1n.jpg,2.744,86.0,-0.22952559440780748,0.8961616090148024
159,Pilot,d10012021,eoRdQ,rating,39.0,49.0,Hinda1.jpg,2.191,79.0,-0.5648399314301338,0.5205250064337476
160,Pilot,d10012021,eoRdQ,rating,40.0,16.0,Lewa1n.jpg,3.479,76.0,0.21614535986237263,0.3595378910418669
161,Pilot,d10012021,eoRdQ,rating,41.0,41.0,Vincb1.jpg,1.841,70.0,-0.7770641953683147,0.03756366025810563
162,Pilot,d10012021,eoRdQ,rating,42.0,36.0,Gorkf1.jpg,1.607,64.0,-0.9189512746869843,-0.28441057052565566
163,Pilot,d10012021,eoRdQ,rating,43.0,5.0,Kupb1n.jpg,2.105,95.0,-0.6169864648549439,1.3791229551904443
164,Pilot,d10012021,eoRdQ,rating,44.0,19.0,Macc1n.jpg,2.032,91.0,-0.6612503827620502,1.16447346800127
165,Pilot,d10012021,eoRdQ,rating,45.0,13.0,Picak1.jpg,3.053,94.0,-0.042161887102384964,1.3254605833931508
166,Pilot,d10012021,eoRdQ,rating,46.0,46.0,Deka1n.jpg,4.674,24.0,0.9407396324513052,-2.4309054424173975
167,Pilot,d10012021,eoRdQ,rating,47.0,6.0,Wdekc1.jpg,3.587,38.0,0.28163170416329714,-1.6796322372552879
168,Pilot,d10012021,eoRdQ,rating,48.0,58.0,Mackc1.jpg,2.559,77.0,-0.3417012767751318,0.41320026283916045
169,Pilot,d10012021,eoRdQ,rating,49.0,31.0,Maca1n.jpg,2.269,74.0,-0.5175442383239104,0.2522131474472798
170,Pilot,d10012021,eoRdQ,rating,50.0,23.0,Lewib1.jpg,2.176,79.0,-0.5739352570274842,0.5205250064337476
171,Pilot,d10012021,eoRdQ,rating,51.0,39.0,Dekb1n.jpg,2.002,78.0,-0.6794410339567515,0.466862634636454
172,Pilot,d10012021,eoRdQ,rating,52.0,29.0,Clifb1.jpg,2.301,80.0,-0.4981408770495624,0.574187378231041
173,Pilot,d10012021,eoRdQ,rating,53.0,9.0,Lassc1.jpg,2.84,78.0,-0.17131551058476377,0.466862634636454
174,Pilot,d10012021,eoRdQ,rating,54.0,32.0,Macka1.jpg,1.575,77.0,-0.9383546359613323,0.41320026283916045
175,Pilot,d10012021,eoRdQ,rating,55.0,28.0,Krasa1.jpg,2.4,87.0,-0.43811172810704846,0.949823980812096
176,Pilot,d10012021,eoRdQ,rating,56.0,42.0,Picc1n.jpg,2.147,66.0,-0.5915195531823623,-0.17708582693106856
177,Pilot,d10012021,eoRdQ,rating,57.0,38.0,Lasc1n.jpg,2.432,62.0,-0.41870836683270046,-0.39173531412024276
178,Pilot,d10012021,eoRdQ,rating,58.0,14.0,Kupkb1.jpg,2.574,83.0,-0.33260595117778136,0.7351744936229218
179,Pilot,d10012021,eoRdQ,rating,59.0,53.0,Gorka1.jpg,1.95,61.0,-0.7109714960275669,-0.44539768591753626
180,Pilot,d10012021,lPMys,rating,0.0,54.0,Kupka1.jpg,4.282,39.0,0.739910942626301,-1.1171244150960309
181,Pilot,d10012021,lPMys,rating,1.0,20.0,Gorc1n.jpg,2.834,38.0,-0.5941306597845784,-1.1810209498012376
182,Pilot,d10012021,lPMys,rating,2.0,5.0,Kupb1n.jpg,3.314,58.0,-0.151906924178762,0.09690974430289681
183,Pilot,d10012021,lPMys,rating,3.0,55.0,Lewic1.jpg,4.54,50.0,0.9776062005144273,-0.414262533338757
184,Pilot,d10012021,lPMys,rating,4.0,47.0,Kupkd1.jpg,7.226,58.0,3.452216521008641,0.09690974430289681
185,Pilot,d10012021,lPMys,rating,5.0,45.0,Klia1n.jpg,4.322,50.0,0.7767629205934523,-0.414262533338757
186,Pilot,d10012021,lPMys,rating,6.0,59.0,Kraa1n.jpg,4.309,60.0,0.7647860277541283,0.22470281371331025
187,Pilot,d10012021,lPMys,rating,7.0,56.0,Luisc1.jpg,3.474,54.0,-0.004499012310156411,-0.15867639451793009
188,Pilot,d10012021,lPMys,rating,8.0,34.0,Monb1n.jpg,4.718,46.0,1.1415975024682508,-0.6698486721595839
189,Pilot,d10012021,lPMys,rating,9.0,31.0,Maca1n.jpg,3.962,59.0,0.4450951188890902,0.16080627900810354
190,Pilot,d10012021,lPMys,rating,10.0,9.0,Lassc1.jpg,4.508,13.0,0.9481246181407061,-2.778434317431406
191,Pilot,d10012021,lPMys,rating,11.0,58.0,Mackc1.jpg,4.268,74.0,0.7270127503377978,1.1192542995862045
192,Pilot,d10012021,lPMys,rating,12.0,28.0,Krasa1.jpg,4.972,55.0,1.3756075625596622,-0.09477985981272337
193,Pilot,d10012021,lPMys,rating,13.0,35.0,Wdeka1.jpg,6.271,86.0,2.572375547042902,1.886012716048685
194,Pilot,d10012021,lPMys,rating,14.0,37.0,Mondb1.jpg,2.794,62.0,-0.6309826377517297,0.3524958831237237
195,Pilot,d10012021,lPMys,rating,15.0,8.0,Klina1.jpg,2.954,39.0,-0.4835747258831241,-1.1171244150960309
196,Pilot,d10012021,lPMys,rating,16.0,10.0,Stera1.jpg,4.646,48.0,1.0752639421273782,-0.5420556027491704
197,Pilot,d10012021,lPMys,rating,17.0,50.0,Gorke1.jpg,3.011,56.0,-0.4310606572799335,-0.030883325107516645
198,Pilot,d10012021,lPMys,rating,18.0,13.0,Picak1.jpg,2.904,60.0,-0.5296396983420636,0.22470281371331025
199,Pilot,d10012021,lPMys,rating,19.0,3.0,Fogeg1.jpg,3.668,56.0,0.17423308083052766,-0.030883325107516645
200,Pilot,d10012021,lPMys,rating,20.0,52.0,Picaa1.jpg,4.532,89.0,0.9702358049209969,2.0777023201643052
201,Pilot,d10012021,lPMys,rating,21.0,4.0,Mackb1.jpg,3.274,45.0,-0.1887589021459134,-0.7337452068647906
202,Pilot,d10012021,lPMys,rating,22.0,22.0,Macb1n.jpg,3.235,41.0,-0.2246895806638861,-0.9893313456856175
203,Pilot,d10012021,lPMys,rating,23.0,7.0,Pica1n.jpg,2.563,68.0,-0.8438028105120288,0.7358750913549641
204,Pilot,d10012021,lPMys,rating,24.0,33.0,Kupc1n.jpg,2.304,60.0,-1.0824193678493341,0.22470281371331025
205,Pilot,d10012021,lPMys,rating,25.0,24.0,Dekoa1.jpg,3.748,55.0,0.24793703676483045,-0.09477985981272337
206,Pilot,d10012021,lPMys,rating,26.0,57.0,Lewc1n.jpg,3.249,43.0,-0.21179138837538292,-0.8615382762752041
207,Pilot,d10012021,lPMys,rating,27.0,49.0,Hinda1.jpg,2.096,43.0,-1.274049653278521,-0.8615382762752041
208,Pilot,d10012021,lPMys,rating,28.0,1.0,Lewia1.jpg,3.226,64.0,-0.23298127570649507,0.48028895253413717
209,Pilot,d10012021,lPMys,rating,29.0,29.0,Clifb1.jpg,4.727,76.0,1.14988919751086,1.247047368996618
210,Pilot,d10012021,lPMys,rating,30.0,39.0,Dekb1n.jpg,2.512,74.0,-0.8907890824201469,1.1192542995862045
211,Pilot,d10012021,lPMys,rating,31.0,14.0,Kupkb1.jpg,2.851,36.0,-0.5784685691485391,-1.308814019211651
212,Pilot,d10012021,lPMys,rating,32.0,51.0,Gora1n.jpg,2.835,63.0,-0.5932093603353996,0.41639241782893044
213,Pilot,d10012021,lPMys,rating,33.0,6.0,Wdekc1.jpg,3.034,29.0,-0.40987076994882177,-1.7560897621480982
214,Pilot,d10012021,lPMys,rating,34.0,25.0,Clifa1.jpg,4.709,68.0,1.1333058074256415,0.7358750913549641
215,Pilot,d10012021,lPMys,rating,35.0,30.0,Lasse1.jpg,2.353,75.0,-1.0372756948395734,1.1831508342914112
216,Pilot,d10012021,lPMys,rating,36.0,42.0,Picc1n.jpg,2.003,82.0,-1.3597305020521477,1.630426577227858
217,Pilot,d10012021,lPMys,rating,37.0,48.0,Picb1n.jpg,2.424,94.0,-0.9718634339478799,2.397184993690339
218,Pilot,d10012021,lPMys,rating,38.0,16.0,Lewa1n.jpg,5.599,73.0,1.9532623171947596,1.0553577648809978
219,Pilot,d10012021,lPMys,rating,39.0,15.0,Clia1n.jpg,3.812,35.0,0.30690020151227226,-1.3727105539168578
220,Pilot,d10012021,lPMys,rating,40.0,26.0,Clib1n.jpg,2.225,29.0,-1.1552020243344578,-1.7560897621480982
221,Pilot,d10012021,lPMys,rating,41.0,36.0,Gorkf1.jpg,2.451,74.0,-0.9469883488200527,1.1192542995862045
222,Pilot,d10012021,lPMys,rating,42.0,41.0,Vincb1.jpg,3.378,62.0,-0.09294375943131976,0.3524958831237237
223,Pilot,d10012021,lPMys,rating,43.0,40.0,Krab1n.jpg,2.747,53.0,-0.6742837118631327,-0.22257292922313682
224,Pilot,d10012021,lPMys,rating,44.0,18.0,Krasb1.jpg,2.577,61.0,-0.8309046182235259,0.288599348418517
225,Pilot,d10012021,lPMys,rating,45.0,23.0,Lewib1.jpg,2.331,61.0,-1.057544282721507,0.288599348418517
226,Pilot,d10012021,lPMys,rating,46.0,32.0,Macka1.jpg,3.515,60.0,0.033274265106173664,0.22470281371331025
227,Pilot,d10012021,lPMys,rating,47.0,38.0,Lasc1n.jpg,2.674,57.0,-0.7415385716531839,0.03301320959769008
228,Pilot,d10012021,lPMys,rating,48.0,11.0,Wdekb1.jpg,2.531,35.0,-0.8732843928857499,-1.3727105539168578
229,Pilot,d10012021,lPMys,rating,49.0,43.0,Picac1.jpg,3.107,67.0,-0.34261591015877013,0.6719785566497574
230,Pilot,d10012021,lPMys,rating,50.0,27.0,Vinb1n.jpg,2.592,53.0,-0.8170851264858441,-0.22257292922313682
231,Pilot,d10012021,lPMys,rating,51.0,12.0,Kupkc1.jpg,2.467,63.0,-0.9322475576331921,0.41639241782893044
232,Pilot,d10012021,lPMys,rating,52.0,21.0,Lewb1n.jpg,3.812,35.0,0.30690020151227226,-1.3727105539168578
233,Pilot,d10012021,lPMys,rating,53.0,17.0,Picab1.jpg,2.337,70.0,-1.0520164860264338,0.8636681607653776
234,Pilot,d10012021,lPMys,rating,54.0,44.0,Lassf1.jpg,5.446,61.0,1.8123035014704054,0.288599348418517
235,Pilot,d10012021,lPMys,rating,55.0,2.0,Dekob1.jpg,2.754,57.0,-0.6678346157188811,0.03301320959769008
236,Pilot,d10012021,lPMys,rating,56.0,19.0,Macc1n.jpg,3.059,62.0,-0.3868382837193518,0.3524958831237237
237,Pilot,d10012021,lPMys,rating,57.0,53.0,Gorka1.jpg,3.867,36.0,0.35757167121710554,-1.308814019211651
238,Pilot,d10012021,lPMys,rating,58.0,0.0,Gorkc1.jpg,4.117,59.0,0.5878965335118016,0.16080627900810354
239,Pilot,d10012021,lPMys,rating,59.0,46.0,Deka1n.jpg,2.683,60.0,-0.733246876610575,0.22470281371331025
240,Pilot,d09302021,d1IcC,rating,0.0,54.0,Kupka1.jpg,5.578,18.0,2.2212209842112527,-0.5639134374162278
241,Pilot,d09302021,d1IcC,rating,1.0,10.0,Stera1.jpg,4.573,11.0,1.008461116154368,-0.8096018645062855
242,Pilot,d09302021,d1IcC,rating,2.0,15.0,Clia1n.jpg,3.925,32.0,0.2265025146609729,-0.07253658323611238
243,Pilot,d09302021,d1IcC,rating,3.0,13.0,Picak1.jpg,4.883,67.0,1.3825462495848493,1.1559055522141761
244,Pilot,d09302021,d1IcC,rating,4.0,24.0,Dekoa1.jpg,4.11,19.0,0.4497468684823901,-0.5288150906890767
245,Pilot,d09302021,d1IcC,rating,5.0,19.0,Macc1n.jpg,3.138,30.0,-0.7231910337577019,-0.14273327669041458
246,Pilot,d09302021,d1IcC,rating,6.0,41.0,Vincb1.jpg,4.868,32.0,1.364445356031762,-0.07253658323611238
247,Pilot,d09302021,d1IcC,rating,7.0,7.0,Pica1n.jpg,3.299,31.0,-0.5289081096212258,-0.10763492996326349
248,Pilot,d09302021,d1IcC,rating,8.0,22.0,Macb1n.jpg,3.988,25.0,0.302526267583942,-0.31822501032617007
249,Pilot,d09302021,d1IcC,rating,9.0,49.0,Hinda1.jpg,4.508,78.0,0.9300239107576536,1.5419873662128383
250,Pilot,d09302021,d1IcC,rating,10.0,50.0,Gorke1.jpg,4.601,36.0,1.042249450786798,0.06785680367249201
251,Pilot,d09302021,d1IcC,rating,11.0,44.0,Lassf1.jpg,3.669,41.0,-0.0824194019783925,0.24334853730824751
252,Pilot,d09302021,d1IcC,rating,12.0,47.0,Kupkd1.jpg,4.815,72.0,1.3004888654775182,1.3313972858499317
253,Pilot,d09302021,d1IcC,rating,13.0,51.0,Gora1n.jpg,3.257,50.0,-0.5795906115698715,0.5592336578526074
254,Pilot,d09302021,d1IcC,rating,14.0,53.0,Gorka1.jpg,4.719,48.0,1.184643146737756,0.4890369643983052
255,Pilot,d09302021,d1IcC,rating,15.0,28.0,Krasa1.jpg,3.667,78.0,-0.0848328544521378,1.5419873662128383
256,Pilot,d09302021,d1IcC,rating,16.0,30.0,Lasse1.jpg,3.783,0.0,0.055147389025074885,-1.1956836785049476
257,Pilot,d09302021,d1IcC,rating,17.0,1.0,Lewia1.jpg,4.128,71.0,0.47146794074609527,1.2962989391227804
258,Pilot,d09302021,d1IcC,rating,18.0,0.0,Gorkc1.jpg,5.215,16.0,1.7831793602265265,-0.6341101308705299
259,Pilot,d09302021,d1IcC,rating,19.0,21.0,Lewb1n.jpg,3.809,79.0,0.08652227118376075,1.5770857129399893
260,Pilot,d09302021,d1IcC,rating,20.0,31.0,Maca1n.jpg,3.648,62.0,-0.10776065295271535,0.9804138185784206
261,Pilot,d09302021,d1IcC,rating,21.0,46.0,Deka1n.jpg,4.978,62.0,1.4971852420877387,0.9804138185784206
262,Pilot,d09302021,d1IcC,rating,22.0,2.0,Dekob1.jpg,2.89,1.0,-1.022459140502087,-1.1605853317777965
263,Pilot,d09302021,d1IcC,rating,23.0,45.0,Klia1n.jpg,2.536,15.0,-1.44964022835496,-0.6692084775976811
264,Pilot,d09302021,d1IcC,rating,24.0,29.0,Clifb1.jpg,3.535,6.0,-0.24412071771931032,-0.985093598142041
265,Pilot,d09302021,d1IcC,rating,25.0,42.0,Picc1n.jpg,3.511,14.0,-0.2730821474042509,-0.7043068243248322
266,Pilot,d09302021,d1IcC,rating,26.0,23.0,Lewib1.jpg,3.598,7.0,-0.16809696479634176,-0.9499952514148898
267,Pilot,d09302021,d1IcC,rating,27.0,14.0,Kupkb1.jpg,3.31,85.0,-0.5156341210156279,1.787675793302896
268,Pilot,d09302021,d1IcC,rating,28.0,16.0,Lewa1n.jpg,2.838,16.0,-1.0852089048194584,-0.6341101308705299
269,Pilot,d09302021,d1IcC,rating,29.0,38.0,Lasc1n.jpg,3.742,59.0,0.005671613313301569,0.8751187783969673
270,Pilot,d09302021,d1IcC,rating,30.0,33.0,Kupc1n.jpg,4.24,4.0,0.6066212792758179,-1.0552902915963431
271,Pilot,d09302021,d1IcC,rating,31.0,57.0,Lewc1n.jpg,2.964,3.0,-0.9331613989735207,-1.0903886383234942
272,Pilot,d09302021,d1IcC,rating,32.0,37.0,Mondb1.jpg,2.902,7.0,-1.007978425659617,-0.9499952514148898
273,Pilot,d09302021,d1IcC,rating,33.0,6.0,Wdekc1.jpg,2.702,6.0,-1.2493236730341215,-0.985093598142041
274,Pilot,d09302021,d1IcC,rating,34.0,27.0,Vinb1n.jpg,2.607,23.0,-1.3639626655370107,-0.3884217037804723
275,Pilot,d09302021,d1IcC,rating,35.0,52.0,Picaa1.jpg,3.596,27.0,-0.17051041727008656,-0.24802831687186788
276,Pilot,d09302021,d1IcC,rating,36.0,20.0,Gorc1n.jpg,2.416,23.0,-1.5944473767796628,-0.3884217037804723
277,Pilot,d09302021,d1IcC,rating,37.0,11.0,Wdekb1.jpg,3.753,1.0,0.01894560191889946,-1.1605853317777965
278,Pilot,d09302021,d1IcC,rating,38.0,35.0,Wdeka1.jpg,2.77,1.0,-1.16726628892679,-1.1605853317777965
279,Pilot,d09302021,d1IcC,rating,39.0,26.0,Clib1n.jpg,3.429,0.0,-0.3720336988277981,-1.1956836785049476
280,Pilot,d09302021,d1IcC,rating,40.0,39.0,Dekb1n.jpg,2.793,0.0,-1.1395115854787217,-1.1956836785049476
281,Pilot,d09302021,d1IcC,rating,41.0,40.0,Krab1n.jpg,4.317,0.0,0.699539199515002,-1.1956836785049476
282,Pilot,d09302021,d1IcC,rating,42.0,12.0,Kupkc1.jpg,4.051,65.0,0.3785500205069111,1.0857088587598738
283,Pilot,d09302021,d1IcC,rating,43.0,4.0,Mackb1.jpg,4.315,9.0,0.6971257470412572,-0.8797985579605877
284,Pilot,d09302021,d1IcC,rating,44.0,25.0,Clifa1.jpg,3.133,65.0,-0.7292246649420644,1.0857088587598738
285,Pilot,d09302021,d1IcC,rating,45.0,48.0,Picb1n.jpg,2.945,71.0,-0.9560891974740987,1.2962989391227804
286,Pilot,d09302021,d1IcC,rating,46.0,34.0,Monb1n.jpg,3.317,50.0,-0.5071870373575201,0.5592336578526074
287,Pilot,d09302021,d1IcC,rating,47.0,3.0,Fogeg1.jpg,4.807,11.0,1.290835055582538,-0.8096018645062855
288,Pilot,d09302021,d1IcC,rating,48.0,59.0,Kraa1n.jpg,3.197,21.0,-0.6519941857822229,-0.4586183972347745
289,Pilot,d09302021,d1IcC,rating,49.0,8.0,Klina1.jpg,2.385,21.0,-1.6318558901227112,-0.4586183972347745
290,Pilot,d09302021,d1IcC,rating,50.0,17.0,Picab1.jpg,2.487,12.0,-1.5087698139617136,-0.7745035177791344
291,Pilot,d09302021,d1IcC,rating,51.0,5.0,Kupb1n.jpg,5.617,64.0,2.2682833074492805,1.0506105120327227
292,Pilot,d09302021,d1IcC,rating,52.0,36.0,Gorkf1.jpg,3.157,0.0,-0.7002632352571239,-1.1956836785049476
293,Pilot,d09302021,d1IcC,rating,53.0,58.0,Mackc1.jpg,3.732,68.0,-0.006395649055423395,1.1910038989413272
294,Pilot,d09302021,d1IcC,rating,54.0,9.0,Lassc1.jpg,4.225,84.0,0.5885203857227294,1.7525774465757447
295,Pilot,d09302021,d1IcC,rating,55.0,32.0,Macka1.jpg,5.228,33.0,1.798866801305869,-0.03743823650896129
296,Pilot,d09302021,d1IcC,rating,56.0,18.0,Krasb1.jpg,2.768,0.0,-1.1696797414005353,-1.1956836785049476
297,Pilot,d09302021,d1IcC,rating,57.0,56.0,Luisc1.jpg,3.368,81.0,-0.44564399927702186,1.6472824063942915
298,Pilot,d09302021,d1IcC,rating,58.0,55.0,Lewic1.jpg,4.363,51.0,0.7550486064111384,0.5943320045797585
299,Pilot,d09302021,d1IcC,rating,59.0,43.0,Picac1.jpg,3.535,82.0,-0.24412071771931032,1.6823807531214425
300,Pilot,d10012021,BAWYi,rating,0.0,29.0,Clifb1.jpg,4.797,24.0,0.9032027779532021,-1.2733184665572346
301,Pilot,d10012021,BAWYi,rating,1.0,6.0,Wdekc1.jpg,3.054,27.0,-0.63198358465156,-1.140987448092857
302,Pilot,d10012021,BAWYi,rating,2.0,24.0,Dekoa1.jpg,3.502,44.0,-0.237397531612585,-0.3911116767947164
303,Pilot,d10012021,BAWYi,rating,3.0,49.0,Hinda1.jpg,3.582,63.0,-0.16693573642705367,0.44698477347967586
304,Pilot,d10012021,BAWYi,rating,4.0,23.0,Lewib1.jpg,4.526,62.0,0.664513446762215,0.40287443399155
305,Pilot,d10012021,BAWYi,rating,5.0,20.0,Gorc1n.jpg,3.086,9.0,-0.6037988665773475,-1.9349735588791233
306,Pilot,d10012021,BAWYi,rating,6.0,51.0,Gora1n.jpg,2.542,60.0,-1.08293907383896,0.31465375501529813
307,Pilot,d10012021,BAWYi,rating,7.0,16.0,Lewa1n.jpg,3.878,39.0,0.09377290575941219,-0.611663374235346
308,Pilot,d10012021,BAWYi,rating,8.0,48.0,Picb1n.jpg,2.542,53.0,-1.08293907383896,0.005881378598416767
309,Pilot,d10012021,BAWYi,rating,9.0,59.0,Kraa1n.jpg,2.462,34.0,-1.153400869024491,-0.8322150716759755
310,Pilot,d10012021,BAWYi,rating,10.0,36.0,Gorkf1.jpg,2.126,43.0,-1.4493404088037225,-0.43522201628284235
311,Pilot,d10012021,BAWYi,rating,11.0,37.0,Mondb1.jpg,4.662,64.0,0.7842984985776184,0.4910951129678018
312,Pilot,d10012021,BAWYi,rating,12.0,3.0,Fogeg1.jpg,3.59,54.0,-0.15988955690850054,0.04999171808654268
313,Pilot,d10012021,BAWYi,rating,13.0,1.0,Lewia1.jpg,3.198,56.0,-0.5051523533176036,0.1382123970627945
314,Pilot,d10012021,BAWYi,rating,14.0,35.0,Wdeka1.jpg,4.35,6.0,0.5094974973540461,-2.067304577343501
315,Pilot,d10012021,BAWYi,rating,15.0,9.0,Lassc1.jpg,3.07,47.0,-0.6178912256144538,-0.2587806583303387
316,Pilot,d10012021,BAWYi,rating,16.0,10.0,Stera1.jpg,4.047,82.0,0.24262344808884662,1.2850812237540683
317,Pilot,d10012021,BAWYi,rating,17.0,15.0,Clia1n.jpg,3.143,44.0,-0.5535948375076565,-0.3911116767947164
318,Pilot,d10012021,BAWYi,rating,18.0,21.0,Lewb1n.jpg,4.743,100.0,0.8556410662029691,2.0790673345403348
319,Pilot,d10012021,BAWYi,rating,19.0,54.0,Kupka1.jpg,3.167,20.0,-0.5324562989519971,-1.4497598245097383
320,Pilot,d10012021,BAWYi,rating,20.0,0.0,Gorkc1.jpg,2.871,35.0,-0.7931649411384626,-0.7881047321878496
321,Pilot,d10012021,BAWYi,rating,21.0,14.0,Kupkb1.jpg,4.167,67.0,0.3483161408671436,0.6234261314321795
322,Pilot,d10012021,BAWYi,rating,22.0,34.0,Monb1n.jpg,3.734,47.0,-0.033058325574544176,-0.2587806583303387
323,Pilot,d10012021,BAWYi,rating,23.0,46.0,Deka1n.jpg,2.63,23.0,-1.0054310991348756,-1.3174288060453605
324,Pilot,d10012021,BAWYi,rating,24.0,38.0,Lasc1n.jpg,2.806,1.0,-0.8504151497267066,-2.2878562747841307
325,Pilot,d10012021,BAWYi,rating,25.0,55.0,Lewic1.jpg,2.902,56.0,-0.765860995504069,0.1382123970627945
326,Pilot,d10012021,BAWYi,rating,26.0,44.0,Lassf1.jpg,3.006,74.0,-0.6742606617628788,0.9321985078490609
327,Pilot,d10012021,BAWYi,rating,27.0,18.0,Krasb1.jpg,2.495,43.0,-1.1243353785104593,-0.43522201628284235
328,Pilot,d10012021,BAWYi,rating,28.0,43.0,Picac1.jpg,2.895,57.0,-0.7720264025828032,0.1823227365509204
329,Pilot,d10012021,BAWYi,rating,29.0,39.0,Dekb1n.jpg,2.494,37.0,-1.1252161509502785,-0.6998840532115979
330,Pilot,d10012021,BAWYi,rating,30.0,58.0,Mackc1.jpg,4.383,74.0,0.5385629878680781,0.9321985078490609
331,Pilot,d10012021,BAWYi,rating,31.0,7.0,Pica1n.jpg,2.062,61.0,-1.5057098449521475,0.35876409450342406
332,Pilot,d10012021,BAWYi,rating,32.0,28.0,Krasa1.jpg,6.951,86.0,2.800386613323631,1.4615225817065718
333,Pilot,d10012021,BAWYi,rating,33.0,53.0,Gorka1.jpg,3.342,59.0,-0.37832112198364726,0.27054341552717226
334,Pilot,d10012021,BAWYi,rating,34.0,19.0,Macc1n.jpg,4.215,100.0,0.39059321797846236,2.0790673345403348
335,Pilot,d10012021,BAWYi,rating,35.0,8.0,Klina1.jpg,3.782,63.0,0.009218751536774613,0.44698477347967586
336,Pilot,d10012021,BAWYi,rating,36.0,33.0,Kupc1n.jpg,4.215,73.0,0.39059321797846236,0.888088168360935
337,Pilot,d10012021,BAWYi,rating,37.0,45.0,Klia1n.jpg,2.878,45.0,-0.7869995340597284,-0.34700133730659055
338,Pilot,d10012021,BAWYi,rating,38.0,42.0,Picc1n.jpg,3.255,35.0,-0.45494832424791265,-0.7881047321878496
339,Pilot,d10012021,BAWYi,rating,39.0,32.0,Macka1.jpg,2.63,55.0,-1.0054310991348756,0.0941020575746686
340,Pilot,d10012021,BAWYi,rating,40.0,30.0,Lasse1.jpg,7.758,51.0,3.5111699722576777,-0.08233930037783506
341,Pilot,d10012021,BAWYi,rating,41.0,57.0,Lewc1n.jpg,4.702,27.0,0.819529396170384,-1.140987448092857
342,Pilot,d10012021,BAWYi,rating,42.0,5.0,Kupb1n.jpg,3.95,58.0,0.15718852142639037,0.22643307603904633
343,Pilot,d10012021,BAWYi,rating,43.0,2.0,Dekob1.jpg,3.446,60.0,-0.2867207882424565,0.31465375501529813
344,Pilot,d10012021,BAWYi,rating,44.0,27.0,Vinb1n.jpg,3.878,55.0,0.09377290575941219,0.0941020575746686
345,Pilot,d10012021,BAWYi,rating,45.0,11.0,Wdekb1.jpg,3.39,4.0,-0.3360440448723284,-2.155525256319753
346,Pilot,d10012021,BAWYi,rating,46.0,17.0,Picab1.jpg,3.086,46.0,-0.6037988665773475,-0.3028909978184646
347,Pilot,d10012021,BAWYi,rating,47.0,40.0,Krab1n.jpg,3.822,47.0,0.04444964912954027,-0.2587806583303387
348,Pilot,d10012021,BAWYi,rating,48.0,47.0,Kupkd1.jpg,4.335,67.0,0.4962859107567593,0.6234261314321795
349,Pilot,d10012021,BAWYi,rating,49.0,52.0,Picaa1.jpg,4.79,80.0,0.8970373708744684,1.1968605447778164
350,Pilot,d10012021,BAWYi,rating,50.0,31.0,Maca1n.jpg,5.047,55.0,1.1233958879079873,0.0941020575746686
351,Pilot,d10012021,BAWYi,rating,51.0,22.0,Macb1n.jpg,3.655,60.0,-0.10263934832025645,0.31465375501529813
352,Pilot,d10012021,BAWYi,rating,52.0,4.0,Mackb1.jpg,4.502,71.0,0.6433749082065556,0.7998674893846832
353,Pilot,d10012021,BAWYi,rating,53.0,50.0,Gorke1.jpg,4.623,20.0,0.7499483734246721,-1.4497598245097383
354,Pilot,d10012021,BAWYi,rating,54.0,26.0,Clib1n.jpg,3.551,57.0,-0.19423968206144676,0.1823227365509204
355,Pilot,d10012021,BAWYi,rating,55.0,25.0,Clifa1.jpg,3.031,86.0,-0.6522413507674,1.4615225817065718
356,Pilot,d10012021,BAWYi,rating,56.0,56.0,Luisc1.jpg,4.639,58.0,0.7640407324617784,0.22643307603904633
357,Pilot,d10012021,BAWYi,rating,57.0,12.0,Kupkc1.jpg,7.158,91.0,2.982706508366194,1.6820742791472014
358,Pilot,d10012021,BAWYi,rating,58.0,13.0,Picak1.jpg,3.766,72.0,-0.0048736075003316505,0.8439778288728091
359,Pilot,d10012021,BAWYi,rating,59.0,41.0,Vincb1.jpg,5.383,85.0,1.4193354276872188,1.4174122422184459
360,Pilot,d10012021,Kmecz,rating,0.0,4.0,Mackb1.jpg,2.551,57.0,-0.08497954062258094,0.2414355294689821
361,Pilot,d10012021,Kmecz,rating,1.0,5.0,Kupb1n.jpg,2.28,67.0,-0.19782293225370973,0.8658377608542807
362,Pilot,d10012021,Kmecz,rating,2.0,9.0,Lassc1.jpg,2.069,59.0,-0.28568254713993896,0.3663159757460418
363,Pilot,d10012021,Kmecz,rating,3.0,24.0,Dekoa1.jpg,2.33,35.0,-0.17700311829962684,-1.1322493795786746
364,Pilot,d10012021,Kmecz,rating,4.0,57.0,Lewc1n.jpg,2.442,59.0,-0.1303667350424814,0.3663159757460418
365,Pilot,d10012021,Kmecz,rating,5.0,29.0,Clifb1.jpg,2.261,61.0,-0.20573446155626104,0.49119642202310154
366,Pilot,d10012021,Kmecz,rating,6.0,2.0,Dekob1.jpg,2.341,62.0,-0.17242275922972858,0.5536366451616314
367,Pilot,d10012021,Kmecz,rating,7.0,50.0,Gorke1.jpg,3.53,37.0,0.32267241659835966,-1.007368933301615
368,Pilot,d10012021,Kmecz,rating,8.0,58.0,Mackc1.jpg,2.063,61.0,-0.2881809248144288,0.49119642202310154
369,Pilot,d10012021,Kmecz,rating,9.0,42.0,Picc1n.jpg,2.087,34.0,-0.2781874141164691,-1.1946896027172045
370,Pilot,d10012021,Kmecz,rating,10.0,15.0,Clia1n.jpg,2.38,66.0,-0.15618330434554414,0.8033975377157507
371,Pilot,d10012021,Kmecz,rating,11.0,56.0,Luisc1.jpg,2.284,69.0,-0.19615734713738311,0.9907182071313403
372,Pilot,d10012021,Kmecz,rating,12.0,41.0,Vincb1.jpg,3.432,37.0,0.2818655812483575,-1.007368933301615
373,Pilot,d10012021,Kmecz,rating,13.0,3.0,Fogeg1.jpg,2.757,25.0,0.0007980928682400755,-1.7566516109639732
374,Pilot,d10012021,Kmecz,rating,14.0,23.0,Lewib1.jpg,2.15,30.0,-0.2519544485343249,-1.444450495271324
375,Pilot,d10012021,Kmecz,rating,15.0,30.0,Lasse1.jpg,2.234,64.0,-0.2169771610914658,0.6785170914386911
376,Pilot,d10012021,Kmecz,rating,16.0,7.0,Pica1n.jpg,1.927,59.0,-0.344810818769534,0.3663159757460418
377,Pilot,d10012021,Kmecz,rating,17.0,33.0,Kupc1n.jpg,1.965,66.0,-0.3289877601644311,0.8033975377157507
378,Pilot,d10012021,Kmecz,rating,18.0,44.0,Lassf1.jpg,2.069,65.0,-0.28568254713993896,0.7409573145772209
379,Pilot,d10012021,Kmecz,rating,19.0,49.0,Hinda1.jpg,2.048,64.0,-0.2944268690006537,0.6785170914386911
380,Pilot,d10012021,Kmecz,rating,20.0,13.0,Picak1.jpg,2.096,62.0,-0.2744398476047342,0.5536366451616314
381,Pilot,d10012021,Kmecz,rating,21.0,16.0,Lewa1n.jpg,2.634,76.0,-0.050418649458803644,1.4277997691010493
382,Pilot,d10012021,Kmecz,rating,22.0,32.0,Macka1.jpg,1.873,70.0,-0.36729621783994343,1.0531584302698702
383,Pilot,d10012021,Kmecz,rating,23.0,59.0,Kraa1n.jpg,1.943,63.0,-0.3381484783042275,0.6160768683001612
384,Pilot,d10012021,Kmecz,rating,24.0,0.0,Gorkc1.jpg,1.973,69.0,-0.3256565899317778,0.9907182071313403
385,Pilot,d10012021,Kmecz,rating,25.0,22.0,Macb1n.jpg,2.166,58.0,-0.2452921080690184,0.303875752607512
386,Pilot,d10012021,Kmecz,rating,26.0,40.0,Krab1n.jpg,2.136,75.0,-0.257783996441468,1.3653595459625194
387,Pilot,d10012021,Kmecz,rating,27.0,11.0,Wdekb1.jpg,2.36,63.0,-0.16451122992717726,0.6160768683001612
388,Pilot,d10012021,Kmecz,rating,28.0,12.0,Kupkc1.jpg,3.755,33.0,0.4163615793917322,-1.2571298258557344
389,Pilot,d10012021,Kmecz,rating,29.0,36.0,Gorkf1.jpg,1.95,32.0,-0.33523370435065597,-1.319570048994264
390,Pilot,d10012021,Kmecz,rating,30.0,46.0,Deka1n.jpg,1.854,39.0,-0.37520774714249483,-0.8824884870245552
391,Pilot,d10012021,Kmecz,rating,31.0,20.0,Gorc1n.jpg,4.935,30.0,0.9077091887080855,-1.444450495271324
392,Pilot,d10012021,Kmecz,rating,32.0,17.0,Picab1.jpg,1.916,35.0,-0.3493911778394323,-1.1322493795786746
393,Pilot,d10012021,Kmecz,rating,33.0,51.0,Gora1n.jpg,1.935,28.0,-0.3414796485368808,-1.5693309415483836
394,Pilot,d10012021,Kmecz,rating,34.0,53.0,Gorka1.jpg,2.792,38.0,0.015371962636097893,-0.9449287101630851
395,Pilot,d10012021,Kmecz,rating,35.0,27.0,Vinb1n.jpg,1.977,62.0,-0.32399100481545123,0.5536366451616314
396,Pilot,d10012021,Kmecz,rating,36.0,45.0,Klia1n.jpg,2.079,34.0,-0.2815185843491223,-1.1946896027172045
397,Pilot,d10012021,Kmecz,rating,37.0,31.0,Maca1n.jpg,2.258,35.0,-0.20698365039350605,-1.1322493795786746
398,Pilot,d10012021,Kmecz,rating,38.0,21.0,Lewb1n.jpg,2.304,22.0,-0.18782942155575,-1.9439722803795627
399,Pilot,d10012021,Kmecz,rating,39.0,39.0,Dekb1n.jpg,2.195,39.0,-0.23321661597565044,-0.8824884870245552
400,Pilot,d10012021,Kmecz,rating,40.0,14.0,Kupkb1.jpg,2.005,62.0,-0.312331909001165,0.5536366451616314
401,Pilot,d10012021,Kmecz,rating,41.0,6.0,Wdekc1.jpg,2.385,70.0,-0.1541013229501359,1.0531584302698702
402,Pilot,d10012021,Kmecz,rating,42.0,54.0,Kupka1.jpg,1.99,60.0,-0.31857785318738974,0.42875619888457167
403,Pilot,d10012021,Kmecz,rating,43.0,10.0,Stera1.jpg,1.78,58.0,-0.4060210717945374,0.303875752607512
404,Pilot,d10012021,Kmecz,rating,44.0,19.0,Macc1n.jpg,1.848,39.0,-0.3777061248169848,-0.8824884870245552
405,Pilot,d10012021,Kmecz,rating,45.0,34.0,Monb1n.jpg,2.2,63.0,-0.231134634580242,0.6160768683001612
406,Pilot,d10012021,Kmecz,rating,46.0,18.0,Krasb1.jpg,2.482,64.0,-0.11371088387921514,0.6785170914386911
407,Pilot,d10012021,Kmecz,rating,47.0,8.0,Klina1.jpg,1.901,31.0,-0.35563712202565706,-1.382010272132794
408,Pilot,d10012021,Kmecz,rating,48.0,48.0,Picb1n.jpg,14.971,61.0,5.08666224557158,0.49119642202310154
409,Pilot,d10012021,Kmecz,rating,49.0,35.0,Wdeka1.jpg,15.374,33.0,5.254469946041487,-1.2571298258557344
410,Pilot,d10012021,Kmecz,rating,50.0,38.0,Lasc1n.jpg,2.005,76.0,-0.312331909001165,1.4277997691010493
411,Pilot,d10012021,Kmecz,rating,51.0,28.0,Krasa1.jpg,4.66,32.0,0.7932002119606305,-1.319570048994264
412,Pilot,d10012021,Kmecz,rating,52.0,43.0,Picac1.jpg,2.163,35.0,-0.24654129690626342,-1.1322493795786746
413,Pilot,d10012021,Kmecz,rating,53.0,37.0,Mondb1.jpg,2.069,61.0,-0.28568254713993896,0.49119642202310154
414,Pilot,d10012021,Kmecz,rating,54.0,25.0,Clifa1.jpg,2.408,76.0,-0.14452420853125778,1.4277997691010493
415,Pilot,d10012021,Kmecz,rating,55.0,47.0,Kupkd1.jpg,2.117,68.0,-0.2656955257440195,0.9282779839928105
416,Pilot,d10012021,Kmecz,rating,56.0,26.0,Clib1n.jpg,1.835,58.0,-0.38311927644504634,0.303875752607512
417,Pilot,d10012021,Kmecz,rating,57.0,52.0,Picaa1.jpg,2.358,70.0,-0.16534402248534047,1.0531584302698702
418,Pilot,d10012021,Kmecz,rating,58.0,55.0,Lewic1.jpg,2.137,61.0,-0.25736760016238636,0.49119642202310154
419,Pilot,d10012021,Kmecz,rating,59.0,1.0,Lewia1.jpg,2.286,70.0,-0.1953245545792197,1.0531584302698702
420,Pilot,d10012021,OH30k,rating,0.0,14.0,Kupkb1.jpg,2.364,23.0,0.06487902106777432,0.12594263578721612
421,Pilot,d10012021,OH30k,rating,1.0,28.0,Krasa1.jpg,2.133,8.0,-0.19036458722043187,-1.054769574717934
422,Pilot,d10012021,OH30k,rating,2.0,39.0,Dekb1n.jpg,1.861,17.0,-0.49091117360308173,-0.3463422484148439
423,Pilot,d10012021,OH30k,rating,3.0,0.0,Gorkc1.jpg,1.893,15.0,-0.45555275167571113,-0.5037705431488639
424,Pilot,d10012021,OH30k,rating,4.0,30.0,Lasse1.jpg,1.668,16.0,-0.7041666558525356,-0.4250563957818539
425,Pilot,d10012021,OH30k,rating,5.0,26.0,Clib1n.jpg,1.885,16.0,-0.4643923571575538,-0.4250563957818539
426,Pilot,d10012021,OH30k,rating,6.0,52.0,Picaa1.jpg,2.286,15.0,-0.021307132380191277,-0.5037705431488639
427,Pilot,d10012021,OH30k,rating,7.0,9.0,Lassc1.jpg,1.79,16.0,-0.5693626722544352,-0.4250563957818539
428,Pilot,d10012021,OH30k,rating,8.0,54.0,Kupka1.jpg,1.998,17.0,-0.3395329297265265,-0.3463422484148439
429,Pilot,d10012021,OH30k,rating,9.0,17.0,Picab1.jpg,1.517,23.0,-0.8710142093223155,0.12594263578721612
430,Pilot,d10012021,OH30k,rating,10.0,33.0,Kupc1n.jpg,1.75,21.0,-0.6135606996636485,-0.031485658946803885
431,Pilot,d10012021,OH30k,rating,11.0,24.0,Dekoa1.jpg,1.83,26.0,-0.5251646448452219,0.3620850778882461
432,Pilot,d10012021,OH30k,rating,12.0,45.0,Klia1n.jpg,1.59,20.0,-0.7903528093005012,-0.11019980631381389
433,Pilot,d10012021,OH30k,rating,13.0,34.0,Monb1n.jpg,1.806,19.0,-0.5516834612907499,-0.1889139536808239
434,Pilot,d10012021,OH30k,rating,14.0,35.0,Wdeka1.jpg,2.213,17.0,-0.10196853240200535,-0.3463422484148439
435,Pilot,d10012021,OH30k,rating,15.0,40.0,Krab1n.jpg,2.654,25.0,0.38531471978457016,0.28337093052123613
436,Pilot,d10012021,OH30k,rating,16.0,20.0,Gorc1n.jpg,4.157,25.0,2.046055599685757,0.28337093052123613
437,Pilot,d10012021,OH30k,rating,17.0,12.0,Kupkc1.jpg,1.781,17.0,-0.5793072284215083,-0.3463422484148439
438,Pilot,d10012021,OH30k,rating,18.0,25.0,Clifa1.jpg,1.87,21.0,-0.48096661743600866,-0.031485658946803885
439,Pilot,d10012021,OH30k,rating,19.0,53.0,Gorka1.jpg,1.637,18.0,-0.7384201270946757,-0.2676281010478339
440,Pilot,d10012021,OH30k,rating,20.0,21.0,Lewb1n.jpg,5.117,78.0,3.106808257506874,4.455220740972766
441,Pilot,d10012021,OH30k,rating,21.0,55.0,Lewic1.jpg,2.293,16.0,-0.013572477583578834,-0.4250563957818539
442,Pilot,d10012021,OH30k,rating,22.0,57.0,Lewc1n.jpg,2.966,0.0,0.7300593335764336,-1.684482753654014
443,Pilot,d10012021,OH30k,rating,23.0,32.0,Macka1.jpg,2.301,19.0,-0.004732872101736184,-0.1889139536808239
444,Pilot,d10012021,OH30k,rating,24.0,48.0,Picb1n.jpg,2.029,20.0,-0.3052794584843863,-0.11019980631381389
445,Pilot,d10012021,OH30k,rating,25.0,42.0,Picc1n.jpg,2.086,10.0,-0.24229726942625757,-0.8973412799839139
446,Pilot,d10012021,OH30k,rating,26.0,50.0,Gorke1.jpg,2.27,20.0,-0.03898634334387658,-0.11019980631381389
447,Pilot,d10012021,OH30k,rating,27.0,29.0,Clifb1.jpg,5.557,55.0,3.59298655900822,2.644795351531536
448,Pilot,d10012021,OH30k,rating,28.0,7.0,Pica1n.jpg,1.621,23.0,-0.756099338058361,0.12594263578721612
449,Pilot,d10012021,OH30k,rating,29.0,59.0,Kraa1n.jpg,2.086,17.0,-0.24229726942625757,-0.3463422484148439
450,Pilot,d10012021,OH30k,rating,30.0,15.0,Clia1n.jpg,2.533,19.0,0.2516156868717002,-0.1889139536808239
451,Pilot,d10012021,OH30k,rating,31.0,11.0,Wdekb1.jpg,1.757,19.0,-0.6058260448670362,-0.1889139536808239
452,Pilot,d10012021,OH30k,rating,32.0,36.0,Gorkf1.jpg,1.957,16.0,-0.38483590782096994,-0.4250563957818539
453,Pilot,d10012021,OH30k,rating,33.0,51.0,Gora1n.jpg,1.806,21.0,-0.5516834612907499,-0.031485658946803885
454,Pilot,d10012021,OH30k,rating,34.0,10.0,Stera1.jpg,1.95,20.0,-0.3925705626175824,-0.11019980631381389
455,Pilot,d10012021,OH30k,rating,35.0,2.0,Dekob1.jpg,1.766,17.0,-0.5958814886999632,-0.3463422484148439
456,Pilot,d10012021,OH30k,rating,36.0,19.0,Macc1n.jpg,1.725,17.0,-0.6411844667944065,-0.3463422484148439
457,Pilot,d10012021,OH30k,rating,37.0,1.0,Lewia1.jpg,2.573,0.0,0.29581371428091346,-1.684482753654014
458,Pilot,d10012021,OH30k,rating,38.0,22.0,Macb1n.jpg,1.838,23.0,-0.5163250393633793,0.12594263578721612
459,Pilot,d10012021,OH30k,rating,39.0,49.0,Hinda1.jpg,1.62,20.0,-0.7572042887435912,-0.11019980631381389
460,Pilot,d10012021,OH30k,rating,40.0,58.0,Mackc1.jpg,1.925,24.0,-0.42019432974834053,0.2046567831542261
461,Pilot,d10012021,OH30k,rating,41.0,4.0,Mackb1.jpg,2.134,23.0,-0.18925963653520164,0.12594263578721612
462,Pilot,d10012021,OH30k,rating,42.0,38.0,Lasc1n.jpg,1.701,19.0,-0.6677032832399346,-0.1889139536808239
463,Pilot,d10012021,OH30k,rating,43.0,18.0,Krasb1.jpg,1.79,19.0,-0.5693626722544352,-0.1889139536808239
464,Pilot,d10012021,OH30k,rating,44.0,46.0,Deka1n.jpg,2.157,17.0,-0.1638457707749039,-0.3463422484148439
465,Pilot,d10012021,OH30k,rating,45.0,13.0,Picak1.jpg,3.646,54.0,1.481425799533058,2.5660812041645262
466,Pilot,d10012021,OH30k,rating,46.0,47.0,Kupkd1.jpg,2.869,18.0,0.6228791171090916,-0.2676281010478339
467,Pilot,d10012021,OH30k,rating,47.0,27.0,Vinb1n.jpg,1.789,17.0,-0.5704676229396656,-0.3463422484148439
468,Pilot,d10012021,OH30k,rating,48.0,43.0,Picac1.jpg,2.069,16.0,-0.26108143107517306,-0.4250563957818539
469,Pilot,d10012021,OH30k,rating,49.0,56.0,Luisc1.jpg,5.645,25.0,3.690222219308488,0.28337093052123613
470,Pilot,d10012021,OH30k,rating,50.0,31.0,Maca1n.jpg,2.766,18.0,0.5090691965303673,-0.2676281010478339
471,Pilot,d10012021,OH30k,rating,51.0,23.0,Lewib1.jpg,2.686,51.0,0.4206731417119408,2.329938762063496
472,Pilot,d10012021,OH30k,rating,52.0,44.0,Lassf1.jpg,2.109,19.0,-0.21688340366595982,-0.1889139536808239
473,Pilot,d10012021,OH30k,rating,53.0,8.0,Klina1.jpg,1.774,24.0,-0.5870418832181205,0.2046567831542261
474,Pilot,d10012021,OH30k,rating,54.0,5.0,Kupb1n.jpg,1.903,22.0,-0.4445032448234078,0.04722848842020611
475,Pilot,d10012021,OH30k,rating,55.0,16.0,Lewa1n.jpg,2.27,0.0,-0.03898634334387658,-1.684482753654014
476,Pilot,d10012021,OH30k,rating,56.0,3.0,Fogeg1.jpg,4.149,52.0,2.037215994203914,2.408652909430506
477,Pilot,d10012021,OH30k,rating,57.0,41.0,Vincb1.jpg,1.989,24.0,-0.34947748589359934,0.2046567831542261
478,Pilot,d10012021,OH30k,rating,58.0,6.0,Wdekc1.jpg,2.102,17.0,-0.22461805846257224,-0.3463422484148439
479,Pilot,d10012021,OH30k,rating,59.0,37.0,Mondb1.jpg,2.31,20.0,0.0052116840653366765,-0.11019980631381389
480,Pilot,d09302021,c4z0I,rating,0.0,17.0,Picab1.jpg,3.928,72.0,0.6966667446917042,0.790334813038836
481,Pilot,d09302021,c4z0I,rating,1.0,8.0,Klina1.jpg,3.287,86.0,0.06178763655145415,1.4355060889889062
482,Pilot,d09302021,c4z0I,rating,2.0,47.0,Kupkd1.jpg,4.102,64.0,0.8690052233444402,0.4216655124959387
483,Pilot,d09302021,c4z0I,rating,3.0,13.0,Picak1.jpg,3.253,65.0,0.028112301642299116,0.46774917506380087
484,Pilot,d09302021,c4z0I,rating,4.0,20.0,Gorc1n.jpg,2.646,45.0,-0.5730914715887959,-0.45392407629344234
485,Pilot,d09302021,c4z0I,rating,5.0,19.0,Macc1n.jpg,2.646,21.0,-0.5730914715887959,-1.5599319779221343
486,Pilot,d09302021,c4z0I,rating,6.0,5.0,Kupb1n.jpg,2.459,74.0,-0.7583058135891495,0.8825021381745604
487,Pilot,d09302021,c4z0I,rating,7.0,42.0,Picc1n.jpg,3.038,63.0,-0.18483466910677102,0.3755818499280766
488,Pilot,d09302021,c4z0I,rating,8.0,53.0,Gorka1.jpg,2.55,79.0,-0.6681747701558225,1.112920451013871
489,Pilot,d09302021,c4z0I,rating,9.0,22.0,Macb1n.jpg,3.694,33.0,0.46490120443457705,-1.0069280271077883
490,Pilot,d09302021,c4z0I,rating,10.0,34.0,Monb1n.jpg,2.47,19.0,-0.7474108522950109,-1.6520993030578586
491,Pilot,d09302021,c4z0I,rating,11.0,31.0,Maca1n.jpg,3.342,64.0,0.1162624430221466,0.4216655124959387
492,Pilot,d09302021,c4z0I,rating,12.0,16.0,Lewa1n.jpg,5.094,67.0,1.851532641870381,0.5599165001995252
493,Pilot,d09302021,c4z0I,rating,13.0,58.0,Mackc1.jpg,3.71,43.0,0.4807484208624148,-0.5460914014291667
494,Pilot,d09302021,c4z0I,rating,14.0,56.0,Luisc1.jpg,5.214,80.0,1.9703867650791642,1.1590041135817333
495,Pilot,d09302021,c4z0I,rating,15.0,32.0,Macka1.jpg,2.878,64.0,-0.3433068333851483,0.4216655124959387
496,Pilot,d09302021,c4z0I,rating,16.0,4.0,Mackb1.jpg,3.189,29.0,-0.03527656406905196,-1.191262677379237
497,Pilot,d09302021,c4z0I,rating,17.0,9.0,Lassc1.jpg,2.374,20.0,-0.8424941508620375,-1.6060156404899963
498,Pilot,d09302021,c4z0I,rating,18.0,29.0,Clifb1.jpg,3.614,43.0,0.38566512229538824,-0.5460914014291667
499,Pilot,d09302021,c4z0I,rating,19.0,12.0,Kupkc1.jpg,2.902,74.0,-0.3195360087433916,0.8825021381745604
500,Pilot,d09302021,c4z0I,rating,20.0,54.0,Kupka1.jpg,4.118,64.0,0.8848524397722779,0.4216655124959387
501,Pilot,d09302021,c4z0I,rating,21.0,14.0,Kupkb1.jpg,2.63,90.0,-0.5889386880166336,1.6198407392603549
502,Pilot,d09302021,c4z0I,rating,22.0,30.0,Lasse1.jpg,2.311,36.0,-0.9048925655466489,-0.8686770394042018
503,Pilot,d09302021,c4z0I,rating,23.0,33.0,Kupc1n.jpg,2.581,77.0,-0.6374707883268868,1.0207531258781468
504,Pilot,d09302021,c4z0I,rating,24.0,35.0,Wdeka1.jpg,2.59,28.0,-0.6285567290862281,-1.2373463399470992
505,Pilot,d09302021,c4z0I,rating,25.0,57.0,Lewc1n.jpg,3.165,66.0,-0.05904738871080861,0.5138328376316631
506,Pilot,d09302021,c4z0I,rating,26.0,43.0,Picac1.jpg,2.79,78.0,-0.430466523738256,1.066836788446009
507,Pilot,d09302021,c4z0I,rating,27.0,44.0,Lassf1.jpg,4.662,36.0,1.4236577983187613,-0.8686770394042018
508,Pilot,d09302021,c4z0I,rating,28.0,55.0,Lewic1.jpg,3.886,72.0,0.6550678015686303,0.790334813038836
509,Pilot,d09302021,c4z0I,rating,29.0,25.0,Clifa1.jpg,4.08,87.0,0.847215300756163,1.4815897515567684
510,Pilot,d09302021,c4z0I,rating,30.0,10.0,Stera1.jpg,2.621,35.0,-0.5978527472572923,-0.9147607019720639
511,Pilot,d09302021,c4z0I,rating,31.0,11.0,Wdekb1.jpg,2.789,74.0,-0.4314569747649957,0.8825021381745604
512,Pilot,d09302021,c4z0I,rating,32.0,46.0,Deka1n.jpg,4.151,61.0,0.9175373236546928,0.28341452479235224
513,Pilot,d09302021,c4z0I,rating,33.0,3.0,Fogeg1.jpg,4.188,33.0,0.9541840116440675,-1.0069280271077883
514,Pilot,d09302021,c4z0I,rating,34.0,36.0,Gorkf1.jpg,2.39,69.0,-0.8266469344341998,0.6520838253352496
515,Pilot,d09302021,c4z0I,rating,35.0,52.0,Picaa1.jpg,3.758,79.0,0.5282900701459281,1.112920451013871
516,Pilot,d09302021,c4z0I,rating,36.0,18.0,Krasb1.jpg,3.182,83.0,-0.04220972125623109,1.2972551012853197
517,Pilot,d09302021,c4z0I,rating,37.0,40.0,Krab1n.jpg,4.19,34.0,0.9561649136975479,-0.9608443645399262
518,Pilot,d09302021,c4z0I,rating,38.0,48.0,Picb1n.jpg,2.501,38.0,-0.7167068704660756,-0.7765097142684775
519,Pilot,d09302021,c4z0I,rating,39.0,41.0,Vincb1.jpg,4.061,35.0,0.8283967312481055,-0.9147607019720639
520,Pilot,d09302021,c4z0I,rating,40.0,21.0,Lewb1n.jpg,6.07,79.0,2.818212843968484,1.112920451013871
521,Pilot,d09302021,c4z0I,rating,41.0,1.0,Lewia1.jpg,3.662,68.0,0.43320677157890153,0.6060001627673873
522,Pilot,d09302021,c4z0I,rating,42.0,0.0,Gorkc1.jpg,2.47,37.0,-0.7474108522950109,-0.8225933768363397
523,Pilot,d09302021,c4z0I,rating,43.0,51.0,Gora1n.jpg,2.302,16.0,-0.9138066247873075,-1.790350290761445
524,Pilot,d09302021,c4z0I,rating,44.0,59.0,Kraa1n.jpg,3.231,40.0,0.006322379054021964,-0.6843423891327531
525,Pilot,d09302021,c4z0I,rating,45.0,38.0,Lasc1n.jpg,1.699,29.0,-1.5110485939114429,-1.191262677379237
526,Pilot,d09302021,c4z0I,rating,46.0,23.0,Lewib1.jpg,1.862,75.0,-1.3496050765528458,0.9285858007424225
527,Pilot,d09302021,c4z0I,rating,47.0,50.0,Gorke1.jpg,2.519,30.0,-0.6988787519847579,-1.1451790148113747
528,Pilot,d09302021,c4z0I,rating,48.0,27.0,Vinb1n.jpg,2.845,32.0,-0.37599171726756353,-1.0530116896756505
529,Pilot,d09302021,c4z0I,rating,49.0,45.0,Klia1n.jpg,2.453,78.0,-0.7642485197495889,1.066836788446009
530,Pilot,d09302021,c4z0I,rating,50.0,28.0,Krasa1.jpg,3.174,67.0,-0.05013332947014998,0.5599165001995252
531,Pilot,d09302021,c4z0I,rating,51.0,2.0,Dekob1.jpg,2.094,32.0,-1.1198204383491985,-1.0530116896756505
532,Pilot,d09302021,c4z0I,rating,52.0,15.0,Clia1n.jpg,4.614,22.0,1.3761161490352478,-1.5138483153542721
533,Pilot,d09302021,c4z0I,rating,53.0,39.0,Dekb1n.jpg,3.055,69.0,-0.16799700165219306,0.6520838253352496
534,Pilot,d09302021,c4z0I,rating,54.0,37.0,Mondb1.jpg,2.342,77.0,-0.8741885837177131,1.0207531258781468
535,Pilot,d09302021,c4z0I,rating,55.0,6.0,Wdekc1.jpg,2.381,56.0,-0.8355609936748588,0.05299621195304142
536,Pilot,d09302021,c4z0I,rating,56.0,49.0,Hinda1.jpg,2.294,32.0,-0.9217302330012264,-1.0530116896756505
537,Pilot,d09302021,c4z0I,rating,57.0,7.0,Pica1n.jpg,6.806,65.0,3.5471847996490204,0.46774917506380087
538,Pilot,d09302021,c4z0I,rating,58.0,26.0,Clib1n.jpg,1.781,31.0,-1.4298316097187744,-1.0990953522435127
539,Pilot,d09302021,c4z0I,rating,59.0,24.0,Dekoa1.jpg,2.789,76.0,-0.4314569747649957,0.9746694633102847
540,Pilot,d09302021,h3ty7,rating,0.0,21.0,Lewb1n.jpg,5.611,86.0,2.2662728862213046,1.195677877050674
541,Pilot,d09302021,h3ty7,rating,1.0,56.0,Luisc1.jpg,3.38,43.0,-0.10308642326652662,-1.5198581465327223
542,Pilot,d09302021,h3ty7,rating,2.0,25.0,Clifa1.jpg,2.941,75.0,-0.5693117647569605,0.5010058710177121
543,Pilot,d09302021,h3ty7,rating,3.0,28.0,Krasa1.jpg,2.748,74.0,-0.774280992337037,0.43785387046926105
544,Pilot,d09302021,h3ty7,rating,4.0,20.0,Gorc1n.jpg,2.231,77.0,-1.3233436382380723,0.6273098721146143
545,Pilot,d09302021,h3ty7,rating,5.0,24.0,Dekoa1.jpg,3.856,60.0,0.4024335369827821,-0.446274137209054
546,Pilot,d09302021,h3ty7,rating,6.0,5.0,Kupb1n.jpg,3.222,79.0,-0.2708850655341542,0.7536138732115164
547,Pilot,d09302021,h3ty7,rating,7.0,41.0,Vincb1.jpg,3.765,50.0,0.30579001517041454,-1.0777941426935649
548,Pilot,d09302021,h3ty7,rating,8.0,32.0,Macka1.jpg,3.89,39.0,0.4385421055720187,-1.7724661487265267
549,Pilot,d09302021,h3ty7,rating,9.0,7.0,Pica1n.jpg,2.46,44.0,-1.0801418086223333,-1.4567061459842712
550,Pilot,d09302021,h3ty7,rating,10.0,39.0,Dekb1n.jpg,3.087,79.0,-0.4142573231678865,0.7536138732115164
551,Pilot,d09302021,h3ty7,rating,11.0,59.0,Kraa1n.jpg,5.155,63.0,1.7819932604362532,-0.2568181355637008
552,Pilot,d09302021,h3ty7,rating,12.0,30.0,Lasse1.jpg,2.61,69.0,-0.9208393001404084,0.12209386772700566
553,Pilot,d09302021,h3ty7,rating,13.0,53.0,Gorka1.jpg,2.296,66.0,-1.2543125512292381,-0.06736213391834757
554,Pilot,d09302021,h3ty7,rating,14.0,35.0,Wdeka1.jpg,2.963,67.0,-0.545947396846278,-0.004210133369896499
555,Pilot,d09302021,h3ty7,rating,15.0,43.0,Picac1.jpg,3.239,86.0,-0.2528307812395361,1.195677877050674
556,Pilot,d09302021,h3ty7,rating,16.0,51.0,Gora1n.jpg,2.944,59.0,-0.566125714587322,-0.5094261377575051
557,Pilot,d09302021,h3ty7,rating,17.0,9.0,Lassc1.jpg,3.751,90.0,0.2909217810454346,1.4482858792444784
558,Pilot,d09302021,h3ty7,rating,18.0,38.0,Lasc1n.jpg,3.366,88.0,-0.11795465739150605,1.321981878147576
559,Pilot,d09302021,h3ty7,rating,19.0,27.0,Vinb1n.jpg,3.336,79.0,-0.14981515908789134,0.7536138732115164
560,Pilot,d09302021,h3ty7,rating,20.0,12.0,Kupkc1.jpg,2.629,60.0,-0.9006609823993644,-0.446274137209054
561,Pilot,d09302021,h3ty7,rating,21.0,40.0,Krab1n.jpg,3.473,36.0,-0.004318868007733128,-1.9619221503718798
562,Pilot,d09302021,h3ty7,rating,22.0,23.0,Lewib1.jpg,3.111,84.0,-0.3887689218107785,1.0693738759537719
563,Pilot,d09302021,h3ty7,rating,23.0,33.0,Kupc1n.jpg,2.447,57.0,-1.0939480260241001,-0.6357301388544073
564,Pilot,d09302021,h3ty7,rating,24.0,18.0,Krasb1.jpg,3.053,55.0,-0.4503658917571231,-0.7620341399513094
565,Pilot,d09302021,h3ty7,rating,25.0,8.0,Klina1.jpg,3.814,42.0,0.35782883460784326,-1.5830101470811735
566,Pilot,d09302021,h3ty7,rating,26.0,50.0,Gorke1.jpg,3.017,67.0,-0.48859849379278514,-0.004210133369896499
567,Pilot,d09302021,h3ty7,rating,27.0,10.0,Stera1.jpg,3.333,68.0,-0.15300120925752947,0.058941867178554576
568,Pilot,d09302021,h3ty7,rating,28.0,49.0,Hinda1.jpg,3.023,93.0,-0.48222639345350793,1.6377418808898314
569,Pilot,d09302021,h3ty7,rating,29.0,2.0,Dekob1.jpg,2.943,89.0,-0.5671877313105347,1.3851338786960272
570,Pilot,d09302021,h3ty7,rating,30.0,11.0,Wdekb1.jpg,4.792,56.0,1.3964811899099943,-0.6988821394028584
571,Pilot,d09302021,h3ty7,rating,31.0,14.0,Kupkb1.jpg,2.744,63.0,-0.7785290592298884,-0.2568181355637008
572,Pilot,d09302021,h3ty7,rating,32.0,4.0,Mackb1.jpg,3.039,39.0,-0.46523412588210256,-1.7724661487265267
573,Pilot,d09302021,h3ty7,rating,33.0,44.0,Lassf1.jpg,3.99,78.0,0.5447437778933022,0.6904618726630654
574,Pilot,d09302021,h3ty7,rating,34.0,13.0,Picak1.jpg,3.548,71.0,0.07533238623322958,0.2483978688239078
575,Pilot,d09302021,h3ty7,rating,35.0,48.0,Picb1n.jpg,2.845,91.0,-0.6712653701853922,1.5114378797929293
576,Pilot,d09302021,h3ty7,rating,36.0,16.0,Lewa1n.jpg,3.437,80.0,-0.04255147004339517,0.8167658737599675
577,Pilot,d09302021,h3ty7,rating,37.0,57.0,Lewc1n.jpg,2.855,64.0,-0.6606452029532641,-0.19366613501524974
578,Pilot,d09302021,h3ty7,rating,38.0,58.0,Mackc1.jpg,3.284,40.0,-0.20504002869495871,-1.7093141481780756
579,Pilot,d09302021,h3ty7,rating,39.0,55.0,Lewic1.jpg,3.435,91.0,-0.0446755034898206,1.5114378797929293
580,Pilot,d09302021,h3ty7,rating,40.0,54.0,Kupka1.jpg,2.458,69.0,-1.0822658420687588,0.12209386772700566
581,Pilot,d09302021,h3ty7,rating,41.0,47.0,Kupkd1.jpg,4.33,68.0,0.9058294637856653,0.058941867178554576
582,Pilot,d09302021,h3ty7,rating,42.0,17.0,Picab1.jpg,3.316,88.0,-0.17105549355214802,1.321981878147576
583,Pilot,d09302021,h3ty7,rating,43.0,52.0,Picaa1.jpg,3.483,84.0,0.006301299224395451,1.0693738759537719
584,Pilot,d09302021,h3ty7,rating,44.0,31.0,Maca1n.jpg,3.212,76.0,-0.2815052327662823,0.5641578715661631
585,Pilot,d09302021,h3ty7,rating,45.0,6.0,Wdekc1.jpg,4.467,60.0,1.051325754865823,-0.446274137209054
586,Pilot,d09302021,h3ty7,rating,46.0,1.0,Lewia1.jpg,3.322,83.0,-0.16468339321287076,1.0062218754053207
587,Pilot,d09302021,h3ty7,rating,47.0,34.0,Monb1n.jpg,3.454,38.0,-0.02449718574877663,-1.8356181492749777
588,Pilot,d09302021,h3ty7,rating,48.0,29.0,Clifb1.jpg,3.485,55.0,0.008425332670820884,-0.7620341399513094
589,Pilot,d09302021,h3ty7,rating,49.0,26.0,Clib1n.jpg,6.129,54.0,2.8163975488455524,-0.8251861404997605
590,Pilot,d09302021,h3ty7,rating,50.0,3.0,Fogeg1.jpg,2.845,60.0,-0.6712653701853922,-0.446274137209054
591,Pilot,d09302021,h3ty7,rating,51.0,36.0,Gorkf1.jpg,5.352,63.0,1.9912105549091814,-0.2568181355637008
592,Pilot,d09302021,h3ty7,rating,52.0,19.0,Macc1n.jpg,3.941,43.0,0.4927049584558729,-1.5198581465327223
593,Pilot,d09302021,h3ty7,rating,53.0,0.0,Gorkc1.jpg,3.593,70.0,0.123123138777807,0.18524586827545672
594,Pilot,d09302021,h3ty7,rating,54.0,42.0,Picc1n.jpg,2.332,65.0,-1.216079949193576,-0.13051413446679866
595,Pilot,d09302021,h3ty7,rating,55.0,22.0,Macb1n.jpg,3.089,64.0,-0.41213328972146107,-0.19366613501524974
596,Pilot,d09302021,h3ty7,rating,56.0,46.0,Deka1n.jpg,2.734,93.0,-0.7891492264620169,1.6377418808898314
597,Pilot,d09302021,h3ty7,rating,57.0,15.0,Clia1n.jpg,7.311,58.0,4.071701315683121,-0.5725781383059562
598,Pilot,d09302021,h3ty7,rating,58.0,45.0,Klia1n.jpg,4.324,67.0,0.8994573634463882,-0.004210133369896499
599,Pilot,d09302021,h3ty7,rating,59.0,37.0,Mondb1.jpg,3.784,69.0,0.325968332911458,0.12209386772700566
600,Pilot,d10012021,11A0U,rating,0.0,5.0,Kupb1n.jpg,4.119,64.0,0.5989370013345775,1.4465087953818874
601,Pilot,d10012021,11A0U,rating,1.0,37.0,Mondb1.jpg,2.82,36.0,-0.490598531026654,-0.028982872038616898
602,Pilot,d10012021,11A0U,rating,2.0,52.0,Picaa1.jpg,2.524,19.0,-0.7388683675000368,-0.9248170986867802
603,Pilot,d10012021,11A0U,rating,3.0,38.0,Lasc1n.jpg,3.529,12.0,0.10407482728290202,-1.2936900155419062
604,Pilot,d10012021,11A0U,rating,4.0,33.0,Kupc1n.jpg,2.716,43.0,-0.5778284735713558,0.33989004481650914
605,Pilot,d10012021,11A0U,rating,5.0,18.0,Krasb1.jpg,5.778,60.0,1.9904223348120855,1.2357242714646726
606,Pilot,d10012021,11A0U,rating,6.0,12.0,Kupkc1.jpg,2.599,73.0,-0.6759621589341458,1.920773974195621
607,Pilot,d10012021,11A0U,rating,7.0,58.0,Mackc1.jpg,2.761,62.0,-0.5400847484318213,1.34111653342328
608,Pilot,d10012021,11A0U,rating,8.0,26.0,Clib1n.jpg,5.083,62.0,1.407491468768163,1.34111653342328
609,Pilot,d10012021,11A0U,rating,9.0,57.0,Lewc1n.jpg,3.014,31.0,-0.3278811382028827,-0.2924635269351355
610,Pilot,d10012021,11A0U,rating,10.0,9.0,Lassc1.jpg,3.95,42.0,0.45718834469943687,0.28719391383720544
611,Pilot,d10012021,11A0U,rating,11.0,36.0,Gorkf1.jpg,2.926,4.0,-0.40169108958686117,-1.715259063376336
612,Pilot,d10012021,11A0U,rating,12.0,32.0,Macka1.jpg,3.449,87.0,0.03697487147928492,2.658519807905873
613,Pilot,d10012021,11A0U,rating,13.0,48.0,Picb1n.jpg,2.91,36.0,-0.41511108074758457,-0.028982872038616898
614,Pilot,d10012021,11A0U,rating,14.0,15.0,Clia1n.jpg,2.545,35.0,-0.7212546291015874,-0.08167900301792062
615,Pilot,d10012021,11A0U,rating,15.0,30.0,Lasse1.jpg,2.265,19.0,-0.956104474414247,-0.9248170986867802
616,Pilot,d10012021,11A0U,rating,16.0,1.0,Lewia1.jpg,2.607,58.0,-0.669252163353784,1.130332009506065
617,Pilot,d10012021,11A0U,rating,17.0,45.0,Klia1n.jpg,3.553,59.0,0.12420481402398714,1.1830281404853686
618,Pilot,d10012021,11A0U,rating,18.0,44.0,Lassf1.jpg,2.532,30.0,-0.7321583719196751,-0.34515965791443926
619,Pilot,d10012021,11A0U,rating,19.0,28.0,Krasa1.jpg,2.872,64.0,-0.4469835597543029,1.4465087953818874
620,Pilot,d10012021,11A0U,rating,20.0,14.0,Kupkb1.jpg,2.29,39.0,-0.9351357382256167,0.12910552089929428
621,Pilot,d10012021,11A0U,rating,21.0,25.0,Clifa1.jpg,2.878,60.0,-0.4419510630690314,1.2357242714646726
622,Pilot,d10012021,11A0U,rating,22.0,20.0,Gorc1n.jpg,2.109,26.0,-1.0869493882313002,-0.5559441818316542
623,Pilot,d10012021,11A0U,rating,23.0,16.0,Lewa1n.jpg,2.659,36.0,-0.6256371920814333,-0.028982872038616898
624,Pilot,d10012021,11A0U,rating,24.0,4.0,Mackb1.jpg,2.36,38.0,-0.8764232768974519,0.07640938991999055
625,Pilot,d10012021,11A0U,rating,25.0,39.0,Dekb1n.jpg,2.367,29.0,-0.8705520307646353,-0.39785578889374296
626,Pilot,d10012021,11A0U,rating,26.0,10.0,Stera1.jpg,2.176,22.0,-1.0307531752457708,-0.766728705748869
627,Pilot,d10012021,11A0U,rating,27.0,22.0,Macb1n.jpg,3.552,38.0,0.12336606457644202,0.07640938991999055
628,Pilot,d10012021,11A0U,rating,28.0,19.0,Macc1n.jpg,3.995,55.0,0.49493206983897137,0.9722436165681538
629,Pilot,d10012021,11A0U,rating,29.0,56.0,Luisc1.jpg,3.606,30.0,0.16865853474388337,-0.34515965791443926
630,Pilot,d10012021,11A0U,rating,30.0,49.0,Hinda1.jpg,2.399,18.0,-0.8437120484431885,-0.9775132296660839
631,Pilot,d10012021,11A0U,rating,31.0,6.0,Wdekc1.jpg,2.287,14.0,-0.9376519865682524,-1.1882977535832988
632,Pilot,d10012021,11A0U,rating,32.0,47.0,Kupkd1.jpg,7.963,62.0,3.8230898776983766,1.34111653342328
633,Pilot,d10012021,11A0U,rating,33.0,17.0,Picab1.jpg,2.937,38.0,-0.3924648456638641,0.07640938991999055
634,Pilot,d10012021,11A0U,rating,34.0,54.0,Kupka1.jpg,2.222,20.0,-0.9921707006586912,-0.8721209677074765
635,Pilot,d10012021,11A0U,rating,35.0,11.0,Wdekb1.jpg,3.496,29.0,0.07639609551391005,-0.39785578889374296
636,Pilot,d10012021,11A0U,rating,36.0,55.0,Lewic1.jpg,4.046,43.0,0.5377082916637773,0.33989004481650914
637,Pilot,d10012021,11A0U,rating,37.0,23.0,Lewib1.jpg,4.658,58.0,1.0510229535614477,1.130332009506065
638,Pilot,d10012021,11A0U,rating,38.0,27.0,Vinb1n.jpg,2.666,33.0,-0.6197659459486167,-0.18707126497652807
639,Pilot,d10012021,11A0U,rating,39.0,40.0,Krab1n.jpg,3.471,20.0,0.055427359325279806,-0.8721209677074765
640,Pilot,d10012021,11A0U,rating,40.0,2.0,Dekob1.jpg,2.923,12.0,-0.4042073379294969,-1.2936900155419062
641,Pilot,d10012021,11A0U,rating,41.0,59.0,Kraa1n.jpg,5.597,66.0,1.8386086848064027,1.5519010573404948
642,Pilot,d10012021,11A0U,rating,42.0,24.0,Dekoa1.jpg,3.004,36.0,-0.3362686326783347,-0.028982872038616898
643,Pilot,d10012021,11A0U,rating,43.0,53.0,Gorka1.jpg,5.239,35.0,1.538336382585216,-0.08167900301792062
644,Pilot,d10012021,11A0U,rating,44.0,31.0,Maca1n.jpg,2.269,30.0,-0.9527494766240661,-0.34515965791443926
645,Pilot,d10012021,11A0U,rating,45.0,41.0,Vincb1.jpg,3.578,24.0,0.14517355021261738,-0.6613364437902616
646,Pilot,d10012021,11A0U,rating,46.0,43.0,Picac1.jpg,5.808,58.0,2.015584818238442,1.130332009506065
647,Pilot,d10012021,11A0U,rating,47.0,46.0,Deka1n.jpg,3.584,7.0,0.15020604689788886,-1.557170670438425
648,Pilot,d10012021,11A0U,rating,48.0,3.0,Fogeg1.jpg,4.866,37.0,1.2254828386508514,0.023713258940686825
649,Pilot,d10012021,11A0U,rating,49.0,34.0,Monb1n.jpg,2.791,18.0,-0.5149222650054651,-0.9775132296660839
650,Pilot,d10012021,11A0U,rating,50.0,21.0,Lewb1n.jpg,5.974,64.0,2.1548172265309478,1.4465087953818874
651,Pilot,d10012021,11A0U,rating,51.0,29.0,Clifb1.jpg,3.083,39.0,-0.2700074263222627,0.12910552089929428
652,Pilot,d10012021,11A0U,rating,52.0,13.0,Picak1.jpg,2.908,23.0,-0.4167885796426752,-0.7140325747695653
653,Pilot,d10012021,11A0U,rating,53.0,7.0,Pica1n.jpg,2.654,34.0,-0.6298309393191592,-0.13437513399722434
654,Pilot,d10012021,11A0U,rating,54.0,8.0,Klina1.jpg,2.618,24.0,-0.6600259194307869,-0.6613364437902616
655,Pilot,d10012021,11A0U,rating,55.0,35.0,Wdeka1.jpg,3.013,7.0,-0.32871988765042787,-1.557170670438425
656,Pilot,d10012021,11A0U,rating,56.0,0.0,Gorkc1.jpg,2.773,18.0,-0.5300197550612787,-0.9775132296660839
657,Pilot,d10012021,11A0U,rating,57.0,42.0,Picc1n.jpg,5.729,20.0,1.9493236118823705,-0.8721209677074765
658,Pilot,d10012021,11A0U,rating,58.0,51.0,Gora1n.jpg,3.882,25.0,0.4001533822663623,-0.6086403128109579
659,Pilot,d10012021,11A0U,rating,59.0,50.0,Gorke1.jpg,3.313,12.0,-0.07709505338686376,-1.2936900155419062
660,Pilot,d10012021,5Mz5m,rating,0.0,23.0,Lewib1.jpg,3.547,38.0,-0.21621999055048682,-0.668041349432572
661,Pilot,d10012021,5Mz5m,rating,1.0,22.0,Macb1n.jpg,2.223,61.0,-0.5248226612655674,0.5465792858993772
662,Pilot,d10012021,5Mz5m,rating,2.0,58.0,Mackc1.jpg,4.639,63.0,0.03830728771300863,0.6521984715804163
663,Pilot,d10012021,5Mz5m,rating,3.0,34.0,Monb1n.jpg,2.773,76.0,-0.39662668778120613,1.3387231785071703
664,Pilot,d10012021,5Mz5m,rating,4.0,19.0,Macc1n.jpg,2.423,62.0,-0.47820594363489055,0.5993888787398968
665,Pilot,d10012021,5Mz5m,rating,5.0,49.0,Hinda1.jpg,2.095,77.0,-0.5546573605492006,1.3915327713476897
666,Pilot,d10012021,5Mz5m,rating,6.0,17.0,Picab1.jpg,1.807,42.0,-0.6217854339373752,-0.4568029780704939
667,Pilot,d10012021,5Mz5m,rating,7.0,7.0,Pica1n.jpg,2.704,58.0,-0.4127094553637896,0.38815050737781864
668,Pilot,d10012021,5Mz5m,rating,8.0,0.0,Gorkc1.jpg,2.651,26.0,-0.42506288553591903,-1.3017564635188064
669,Pilot,d10012021,5Mz5m,rating,9.0,31.0,Maca1n.jpg,3.181,32.0,-0.30152858381462544,-0.9848989064756892
670,Pilot,d10012021,5Mz5m,rating,10.0,50.0,Gorke1.jpg,2.476,41.0,-0.46585251346276124,-0.5096125709110134
671,Pilot,d10012021,5Mz5m,rating,11.0,18.0,Krasb1.jpg,2.618,19.0,-0.4327546439449807,-1.6714236134024432
672,Pilot,d10012021,5Mz5m,rating,12.0,45.0,Klia1n.jpg,2.495,18.0,-0.4614239252878469,-1.7242332062429628
673,Pilot,d10012021,5Mz5m,rating,13.0,20.0,Gorc1n.jpg,2.747,17.0,-0.4026868610731942,-1.7770427990834823
674,Pilot,d10012021,5Mz5m,rating,14.0,43.0,Picac1.jpg,2.359,35.0,-0.4931232932767072,-0.8264701279541307
675,Pilot,d10012021,5Mz5m,rating,15.0,59.0,Kraa1n.jpg,2.795,60.0,-0.3914988488418317,0.4937696930588577
676,Pilot,d10012021,5Mz5m,rating,16.0,25.0,Clifa1.jpg,4.863,64.0,0.0905180114593667,0.7050080644209359
677,Pilot,d10012021,5Mz5m,rating,17.0,47.0,Kupkd1.jpg,3.2,38.0,-0.2970999956397111,-0.668041349432572
678,Pilot,d10012021,5Mz5m,rating,18.0,29.0,Clifb1.jpg,2.593,29.0,-0.4385817336488153,-1.1433276849972478
679,Pilot,d10012021,5Mz5m,rating,19.0,40.0,Krab1n.jpg,2.595,32.0,-0.4381155664725085,-0.9848989064756892
680,Pilot,d10012021,5Mz5m,rating,20.0,6.0,Wdekc1.jpg,3.759,44.0,-0.16680626986196945,-0.35118379238945485
681,Pilot,d10012021,5Mz5m,rating,21.0,30.0,Lasse1.jpg,2.169,55.0,-0.5374091750258502,0.22972172885626005
682,Pilot,d10012021,5Mz5m,rating,22.0,21.0,Lewb1n.jpg,3.51,79.0,-0.22484408331216213,1.4971519570287288
683,Pilot,d10012021,5Mz5m,rating,23.0,5.0,Kupb1n.jpg,4.057,70.0,-0.09734736059226089,1.0218656214640531
684,Pilot,d10012021,5Mz5m,rating,24.0,38.0,Lasc1n.jpg,2.524,25.0,-0.4546645012313988,-1.354566056359326
685,Pilot,d10012021,5Mz5m,rating,25.0,8.0,Klina1.jpg,6.664,61.0,0.5103015537236113,0.5465792858993772
686,Pilot,d10012021,5Mz5m,rating,26.0,4.0,Mackb1.jpg,5.52,59.0,0.24365392887613985,0.4409601002183382
687,Pilot,d10012021,5Mz5m,rating,27.0,14.0,Kupkb1.jpg,7.897,22.0,0.797693617916734,-1.5129948348808846
688,Pilot,d10012021,5Mz5m,rating,28.0,51.0,Gora1n.jpg,8.188,33.0,0.8655209420693689,-0.9320893136351697
689,Pilot,d10012021,5Mz5m,rating,29.0,36.0,Gorkf1.jpg,17.186,37.0,2.9628070682735186,-0.7208509422730915
690,Pilot,d10012021,5Mz5m,rating,30.0,33.0,Kupc1n.jpg,2.659,58.0,-0.423198216830692,0.38815050737781864
691,Pilot,d10012021,5Mz5m,rating,31.0,54.0,Kupka1.jpg,6.013,58.0,0.3585641378357583,0.38815050737781864
692,Pilot,d10012021,5Mz5m,rating,32.0,46.0,Deka1n.jpg,2.578,70.0,-0.4420779874711161,1.0218656214640531
693,Pilot,d10012021,5Mz5m,rating,33.0,24.0,Dekoa1.jpg,2.233,41.0,-0.5224918253840335,-0.5096125709110134
694,Pilot,d10012021,5Mz5m,rating,34.0,1.0,Lewia1.jpg,25.424,62.0,4.882949667481097,0.5993888787398968
695,Pilot,d10012021,5Mz5m,rating,35.0,13.0,Picak1.jpg,10.838,63.0,1.4831924506758365,0.6521984715804163
696,Pilot,d10012021,5Mz5m,rating,36.0,37.0,Mondb1.jpg,2.328,67.0,-0.5003488845094621,0.8634368429424945
697,Pilot,d10012021,5Mz5m,rating,37.0,26.0,Clib1n.jpg,15.628,59.0,2.599662837930546,0.4409601002183382
698,Pilot,d10012021,5Mz5m,rating,38.0,10.0,Stera1.jpg,3.226,64.0,-0.2910398223477232,0.7050080644209359
699,Pilot,d10012021,5Mz5m,rating,39.0,3.0,Fogeg1.jpg,16.206,36.0,2.734385151883202,-0.7736605351136111
700,Pilot,d10012021,5Mz5m,rating,40.0,32.0,Macka1.jpg,3.238,76.0,-0.28824281928988255,1.3387231785071703
701,Pilot,d10012021,5Mz5m,rating,41.0,55.0,Lewic1.jpg,5.4,41.0,0.21568389829773396,-0.5096125709110134
702,Pilot,d10012021,5Mz5m,rating,42.0,12.0,Kupkc1.jpg,2.458,66.0,-0.4700480180495221,0.8106272501019749
703,Pilot,d10012021,5Mz5m,rating,43.0,56.0,Luisc1.jpg,2.693,70.0,-0.41527337483347687,1.0218656214640531
704,Pilot,d10012021,5Mz5m,rating,44.0,53.0,Gorka1.jpg,3.916,82.0,-0.13021214652188814,1.6555807355502874
705,Pilot,d10012021,5Mz5m,rating,45.0,52.0,Picaa1.jpg,4.031,41.0,-0.10340753388424903,-0.5096125709110134
706,Pilot,d10012021,5Mz5m,rating,46.0,57.0,Lewc1n.jpg,2.669,37.0,-0.4208673809491581,-0.7208509422730915
707,Pilot,d10012021,5Mz5m,rating,47.0,41.0,Vincb1.jpg,6.111,82.0,0.3814063294747899,1.6555807355502874
708,Pilot,d10012021,5Mz5m,rating,48.0,15.0,Clia1n.jpg,2.553,71.0,-0.44790507717495065,1.0746752143045726
709,Pilot,d10012021,5Mz5m,rating,49.0,28.0,Krasa1.jpg,2.693,72.0,-0.41527337483347687,1.127484807145092
710,Pilot,d10012021,5Mz5m,rating,50.0,42.0,Picc1n.jpg,2.757,85.0,-0.40035602519166025,1.8140095140718462
711,Pilot,d10012021,5Mz5m,rating,51.0,9.0,Lassc1.jpg,2.862,37.0,-0.37588224843555496,-0.7208509422730915
712,Pilot,d10012021,5Mz5m,rating,52.0,27.0,Vinb1n.jpg,2.299,22.0,-0.5071083085659103,-1.5129948348808846
713,Pilot,d10012021,5Mz5m,rating,53.0,39.0,Dekb1n.jpg,2.024,36.0,-0.5712062953080909,-0.7736605351136111
714,Pilot,d10012021,5Mz5m,rating,54.0,35.0,Wdeka1.jpg,2.645,54.0,-0.4264613870648393,0.17691213601574052
715,Pilot,d10012021,5Mz5m,rating,55.0,44.0,Lassf1.jpg,3.058,35.0,-0.3301978651574917,-0.8264701279541307
716,Pilot,d10012021,5Mz5m,rating,56.0,11.0,Wdekb1.jpg,2.451,21.0,-0.4716796031665958,-1.565804427721404
717,Pilot,d10012021,5Mz5m,rating,57.0,2.0,Dekob1.jpg,2.501,37.0,-0.46002542375892663,-0.7208509422730915
718,Pilot,d10012021,5Mz5m,rating,58.0,48.0,Picb1n.jpg,4.051,63.0,-0.09874586212118125,0.6521984715804163
719,Pilot,d10012021,5Mz5m,rating,59.0,16.0,Lewa1n.jpg,2.678,60.0,-0.41876962865577766,0.4937696930588577
720,Pilot,d09302021,mRuyP,rating,0.0,44.0,Lassf1.jpg,3.108,27.0,1.4102096804257782,-1.0577968536437872
721,Pilot,d09302021,mRuyP,rating,1.0,33.0,Kupc1n.jpg,2.605,12.0,0.11544748410531441,-1.8958401355798862
722,Pilot,d09302021,mRuyP,rating,2.0,16.0,Lewa1n.jpg,2.58,30.0,0.05109548627626576,-0.8901881972565673
723,Pilot,d09302021,mRuyP,rating,3.0,36.0,Gorkf1.jpg,2.148,57.0,-1.0609070362096988,0.6182897102284111
724,Pilot,d09302021,mRuyP,rating,4.0,13.0,Picak1.jpg,2.132,69.0,-1.1020923148202901,1.2887243357772904
725,Pilot,d09302021,mRuyP,rating,5.0,27.0,Vinb1n.jpg,2.158,29.0,-1.0351662370780799,-0.9460577493856406
726,Pilot,d09302021,mRuyP,rating,6.0,51.0,Gora1n.jpg,2.717,62.0,0.4037444343794537,0.8976374708737774
727,Pilot,d09302021,mRuyP,rating,7.0,10.0,Stera1.jpg,3.237,14.0,1.7422659892236705,-1.7841010313217398
728,Pilot,d09302021,mRuyP,rating,8.0,11.0,Wdekb1.jpg,2.47,30.0,-0.232053304171549,-0.8901881972565673
729,Pilot,d09302021,mRuyP,rating,9.0,2.0,Dekob1.jpg,2.133,34.0,-1.0995182349071284,-0.6667099887402742
730,Pilot,d09302021,mRuyP,rating,10.0,20.0,Gorc1n.jpg,2.286,10.0,-0.7056840081933492,-2.0075792398380328
731,Pilot,d09302021,mRuyP,rating,11.0,40.0,Krab1n.jpg,2.013,41.0,-1.4084078244865634,-0.2756231238367613
732,Pilot,d09302021,mRuyP,rating,12.0,41.0,Vincb1.jpg,2.517,27.0,-0.11107154825293786,-1.0577968536437872
733,Pilot,d09302021,mRuyP,rating,13.0,9.0,Lassc1.jpg,2.406,37.0,-0.3967944186139143,-0.4991013323530544
734,Pilot,d09302021,mRuyP,rating,14.0,25.0,Clifa1.jpg,2.885,57.0,0.8361898597906614,0.6182897102284111
735,Pilot,d09302021,mRuyP,rating,15.0,42.0,Picc1n.jpg,2.483,61.0,-0.19859026530044385,0.8417679187447042
736,Pilot,d09302021,mRuyP,rating,16.0,58.0,Mackc1.jpg,2.366,45.0,-0.49975761514039263,-0.05214491532046821
737,Pilot,d09302021,mRuyP,rating,17.0,26.0,Clib1n.jpg,2.222,65.0,-0.8704251226357145,1.0652461272609972
738,Pilot,d09302021,mRuyP,rating,18.0,22.0,Macb1n.jpg,2.542,60.0,-0.04671955042388921,0.785898366615631
739,Pilot,d09302021,mRuyP,rating,19.0,46.0,Deka1n.jpg,2.324,36.0,-0.6078689714931954,-0.5549708844821277
740,Pilot,d09302021,mRuyP,rating,20.0,37.0,Mondb1.jpg,2.19,57.0,-0.9527956798568972,0.6182897102284111
741,Pilot,d09302021,mRuyP,rating,21.0,1.0,Lewia1.jpg,2.901,63.0,0.8773751384012528,0.9535070230028507
742,Pilot,d09302021,mRuyP,rating,22.0,49.0,Hinda1.jpg,2.701,58.0,0.36255915576886233,0.6741592623574844
743,Pilot,d09302021,mRuyP,rating,23.0,5.0,Kupb1n.jpg,2.605,72.0,0.11544748410531441,1.4563329921645103
744,Pilot,d09302021,mRuyP,rating,24.0,47.0,Kupkd1.jpg,2.733,36.0,0.444929712990045,-0.5549708844821277
745,Pilot,d09302021,mRuyP,rating,25.0,57.0,Lewc1n.jpg,3.069,56.0,1.3098205638124616,0.5624201580993379
746,Pilot,d09302021,mRuyP,rating,26.0,12.0,Kupkc1.jpg,2.166,39.0,-1.014573597772784,-0.38736222809490783
747,Pilot,d09302021,mRuyP,rating,27.0,0.0,Gorkc1.jpg,2.638,40.0,0.20039212123965874,-0.3314926759658346
748,Pilot,d09302021,mRuyP,rating,28.0,52.0,Picaa1.jpg,2.885,61.0,0.8361898597906614,0.8417679187447042
749,Pilot,d09302021,mRuyP,rating,29.0,56.0,Luisc1.jpg,2.966,63.0,1.044690332756781,0.9535070230028507
750,Pilot,d09302021,mRuyP,rating,30.0,55.0,Lewic1.jpg,2.373,64.0,-0.48173905574825865,1.009376575131924
751,Pilot,d09302021,mRuyP,rating,31.0,59.0,Kraa1n.jpg,2.213,41.0,-0.8935918418541718,-0.2756231238367613
752,Pilot,d09302021,mRuyP,rating,32.0,18.0,Krasb1.jpg,2.125,57.0,-1.1201108742124242,0.6182897102284111
753,Pilot,d09302021,mRuyP,rating,33.0,45.0,Klia1n.jpg,2.862,44.0,0.7769860217879373,-0.10801446744954148
754,Pilot,d09302021,mRuyP,rating,34.0,17.0,Picab1.jpg,2.23,39.0,-0.8498324833304188,-0.38736222809490783
755,Pilot,d09302021,mRuyP,rating,35.0,14.0,Kupkb1.jpg,2.87,62.0,0.7975786610932329,0.8976374708737774
756,Pilot,d09302021,mRuyP,rating,36.0,43.0,Picac1.jpg,2.421,63.0,-0.3581832199164858,0.9535070230028507
757,Pilot,d09302021,mRuyP,rating,37.0,3.0,Fogeg1.jpg,3.382,63.0,2.115507576632154,0.9535070230028507
758,Pilot,d09302021,mRuyP,rating,38.0,21.0,Lewb1n.jpg,2.741,67.0,0.46552235229534067,1.1769852315191438
759,Pilot,d09302021,mRuyP,rating,39.0,15.0,Clia1n.jpg,2.582,40.0,0.056243646102589105,-0.3314926759658346
760,Pilot,d09302021,mRuyP,rating,40.0,39.0,Dekb1n.jpg,2.245,24.0,-0.8112212846329893,-1.225405510031007
761,Pilot,d09302021,mRuyP,rating,41.0,7.0,Pica1n.jpg,2.141,29.0,-1.0789255956018329,-0.9460577493856406
762,Pilot,d09302021,mRuyP,rating,42.0,30.0,Lasse1.jpg,3.925,37.0,3.513232969479095,-0.4991013323530544
763,Pilot,d09302021,mRuyP,rating,43.0,35.0,Wdeka1.jpg,2.862,12.0,0.7769860217879373,-1.8958401355798862
764,Pilot,d09302021,mRuyP,rating,44.0,50.0,Gorke1.jpg,2.59,63.0,0.07683628540788477,0.9535070230028507
765,Pilot,d09302021,mRuyP,rating,45.0,53.0,Gorka1.jpg,2.213,59.0,-0.8935918418541718,0.7300288144865577
766,Pilot,d09302021,mRuyP,rating,46.0,8.0,Klina1.jpg,1.959,54.0,-1.5474081397973085,0.4506810538411913
767,Pilot,d09302021,mRuyP,rating,47.0,31.0,Maca1n.jpg,2.726,64.0,0.426911153597911,1.009376575131924
768,Pilot,d09302021,mRuyP,rating,48.0,23.0,Lewib1.jpg,2.75,88.0,0.488689071513798,2.3502458262296826
769,Pilot,d09302021,mRuyP,rating,49.0,48.0,Picb1n.jpg,2.541,27.0,-0.04929363033705088,-1.0577968536437872
770,Pilot,d09302021,mRuyP,rating,50.0,4.0,Mackb1.jpg,2.422,8.0,-0.355609140003323,-2.1193183440961794
771,Pilot,d09302021,mRuyP,rating,51.0,19.0,Macc1n.jpg,2.63,34.0,0.17979948193436307,-0.6667099887402742
772,Pilot,d09302021,mRuyP,rating,52.0,28.0,Krasa1.jpg,2.997,44.0,1.1244868100648007,-0.10801446744954148
773,Pilot,d09302021,mRuyP,rating,53.0,34.0,Monb1n.jpg,2.758,41.0,0.5092817108190937,-0.2756231238367613
774,Pilot,d09302021,mRuyP,rating,54.0,24.0,Dekoa1.jpg,3.078,30.0,1.332987283030919,-0.8901881972565673
775,Pilot,d09302021,mRuyP,rating,55.0,29.0,Clifb1.jpg,2.67,62.0,0.28276267846084135,0.8976374708737774
776,Pilot,d09302021,mRuyP,rating,56.0,38.0,Lasc1n.jpg,1.934,38.0,-1.6117601376263577,-0.44323178022398113
777,Pilot,d09302021,mRuyP,rating,57.0,54.0,Kupka1.jpg,2.981,61.0,1.0833015314542094,0.8417679187447042
778,Pilot,d09302021,mRuyP,rating,58.0,6.0,Wdekc1.jpg,2.221,31.0,-0.8729992025488762,-0.8343186451274941
779,Pilot,d09302021,mRuyP,rating,59.0,32.0,Macka1.jpg,1.981,62.0,-1.4907783817077456,0.8976374708737774
780,Pilot,d09302021,QqVXN,rating,0.0,54.0,Kupka1.jpg,6.303,66.0,0.2785984633982193,0.5911957135856578
781,Pilot,d09302021,QqVXN,rating,1.0,7.0,Pica1n.jpg,4.003,70.0,-0.11354159707478007,0.7518831102567313
782,Pilot,d09302021,QqVXN,rating,2.0,12.0,Kupkc1.jpg,3.207,42.0,-0.24925615713413124,-0.3729286664407829
783,Pilot,d09302021,QqVXN,rating,3.0,31.0,Maca1n.jpg,4.379,39.0,-0.049435221971368085,-0.49344421394408794
784,Pilot,d09302021,QqVXN,rating,4.0,45.0,Klia1n.jpg,3.071,32.0,-0.27244356940557807,-0.7746471581184665
785,Pilot,d09302021,QqVXN,rating,5.0,13.0,Picak1.jpg,2.824,82.0,-0.31455600198680894,1.2339453002699516
786,Pilot,d09302021,QqVXN,rating,6.0,41.0,Vincb1.jpg,3.932,53.0,-0.12564679024590314,0.06896167440466909
787,Pilot,d09302021,QqVXN,rating,7.0,1.0,Lewia1.jpg,4.004,79.0,-0.11337110139631365,1.1134297527666466
788,Pilot,d09302021,QqVXN,rating,8.0,18.0,Krasb1.jpg,3.299,36.0,-0.23357055471521124,-0.6139597614473931
789,Pilot,d09302021,QqVXN,rating,9.0,29.0,Clifb1.jpg,3.009,84.0,-0.2830143014705025,1.3142889986054882
790,Pilot,d09302021,QqVXN,rating,10.0,52.0,Picaa1.jpg,3.832,61.0,-0.1426963580925553,0.39033646774681596
791,Pilot,d09302021,QqVXN,rating,11.0,11.0,Wdekb1.jpg,3.634,29.0,-0.17645450242892655,-0.8951627056217716
792,Pilot,d09302021,QqVXN,rating,12.0,42.0,Picc1n.jpg,3.847,35.0,-0.14013892291555746,-0.6541316106151615
793,Pilot,d09302021,QqVXN,rating,13.0,38.0,Lasc1n.jpg,5.703,20.0,0.1763010563183065,-1.2567093481316869
794,Pilot,d09302021,QqVXN,rating,14.0,6.0,Wdekc1.jpg,3.331,70.0,-0.22811469300428255,0.7518831102567313
795,Pilot,d09302021,QqVXN,rating,15.0,33.0,Kupc1n.jpg,2.968,79.0,-0.29000462428762985,1.1134297527666466
796,Pilot,d09302021,QqVXN,rating,16.0,2.0,Dekob1.jpg,3.095,69.0,-0.26835167312238156,0.7117112610889629
797,Pilot,d09302021,QqVXN,rating,17.0,25.0,Clifa1.jpg,2.626,76.0,-0.3483141463231802,0.9929142052633414
798,Pilot,d09302021,QqVXN,rating,18.0,16.0,Lewa1n.jpg,3.435,33.0,-0.2103831424437643,-0.7344753089506981
799,Pilot,d09302021,QqVXN,rating,19.0,49.0,Hinda1.jpg,3.152,22.0,-0.25863341944978985,-1.17636564979615
800,Pilot,d09302021,QqVXN,rating,20.0,59.0,Kraa1n.jpg,2.883,33.0,-0.3044967569572842,-0.7344753089506981
801,Pilot,d09302021,QqVXN,rating,21.0,36.0,Gorkf1.jpg,3.351,33.0,-0.2247047794349521,-0.7344753089506981
802,Pilot,d09302021,QqVXN,rating,22.0,37.0,Mondb1.jpg,3.286,34.0,-0.235786998535276,-0.6943034597829297
803,Pilot,d09302021,QqVXN,rating,23.0,57.0,Lewc1n.jpg,3.378,13.0,-0.220101396116356,-1.5379122923060653
804,Pilot,d09302021,QqVXN,rating,24.0,22.0,Macb1n.jpg,13.209,52.0,1.4560416188880168,0.028789825236900737
805,Pilot,d09302021,QqVXN,rating,25.0,32.0,Macka1.jpg,2.924,64.0,-0.2975064341401568,0.510852015250121
806,Pilot,d09302021,QqVXN,rating,26.0,28.0,Krasa1.jpg,3.607,73.0,-0.18105788574752257,0.8723986577600363
807,Pilot,d09302021,QqVXN,rating,27.0,35.0,Wdeka1.jpg,3.431,92.0,-0.21106512515763037,1.6356637919476351
808,Pilot,d09302021,QqVXN,rating,28.0,5.0,Kupb1n.jpg,3.23,50.0,-0.2453347565294012,-0.05155387309863599
809,Pilot,d09302021,QqVXN,rating,29.0,24.0,Dekoa1.jpg,4.21,33.0,-0.07824899163221015,-0.7344753089506981
810,Pilot,d09302021,QqVXN,rating,30.0,17.0,Picab1.jpg,3.137,40.0,-0.2611908546267877,-0.4532723647763196
811,Pilot,d09302021,QqVXN,rating,31.0,50.0,Gorke1.jpg,3.279,56.0,-0.23698046828454167,0.18947722190797417
812,Pilot,d09302021,QqVXN,rating,32.0,30.0,Lasse1.jpg,2.818,9.0,-0.31557897605760804,-1.6985996889771389
813,Pilot,d09302021,QqVXN,rating,33.0,20.0,Gorc1n.jpg,17.388,13.0,2.16854305919961,-1.5379122923060653
814,Pilot,d09302021,QqVXN,rating,34.0,44.0,Lassf1.jpg,3.374,24.0,-0.2207833788302221,-1.0960219514606133
815,Pilot,d09302021,QqVXN,rating,35.0,27.0,Vinb1n.jpg,44.89,21.0,6.857515208385884,-1.2165374989639184
816,Pilot,d09302021,QqVXN,rating,36.0,55.0,Lewic1.jpg,3.506,91.0,-0.1982779492726413,1.5954919427798668
817,Pilot,d09302021,QqVXN,rating,37.0,10.0,Stera1.jpg,2.853,29.0,-0.3096116273112798,-0.8951627056217716
818,Pilot,d09302021,QqVXN,rating,38.0,58.0,Mackc1.jpg,4.962,53.0,0.04996375857461398,0.06896167440466909
819,Pilot,d09302021,QqVXN,rating,39.0,26.0,Clib1n.jpg,12.134,34.0,1.2727587645365062,-0.6943034597829297
820,Pilot,d09302021,QqVXN,rating,40.0,0.0,Gorkc1.jpg,2.781,28.0,-0.32188731616086935,-0.93533455478954
821,Pilot,d09302021,QqVXN,rating,41.0,34.0,Monb1n.jpg,2.49,37.0,-0.3715015585946271,-0.5737879122796247
822,Pilot,d09302021,QqVXN,rating,42.0,53.0,Gorka1.jpg,3.015,23.0,-0.2819913273997033,-1.1361938006283818
823,Pilot,d09302021,QqVXN,rating,43.0,40.0,Krab1n.jpg,3.535,69.0,-0.19333357459711212,0.7117112610889629
824,Pilot,d09302021,QqVXN,rating,44.0,15.0,Clia1n.jpg,3.222,10.0,-0.24669872195713338,-1.6584278398093704
825,Pilot,d09302021,QqVXN,rating,45.0,8.0,Klina1.jpg,3.407,21.0,-0.2151570214408269,-1.2165374989639184
826,Pilot,d09302021,QqVXN,rating,46.0,47.0,Kupkd1.jpg,3.008,68.0,-0.283184797148969,0.6715394119211945
827,Pilot,d09302021,QqVXN,rating,47.0,19.0,Macc1n.jpg,2.526,62.0,-0.3653637141698324,0.43050831691458435
828,Pilot,d09302021,QqVXN,rating,48.0,43.0,Picac1.jpg,2.384,84.0,-0.3895741005120784,1.3142889986054882
829,Pilot,d09302021,QqVXN,rating,49.0,21.0,Lewb1n.jpg,3.171,81.0,-0.255394001558926,1.1937734511021831
830,Pilot,d09302021,QqVXN,rating,50.0,46.0,Deka1n.jpg,2.547,70.0,-0.36178330492203536,0.7518831102567313
831,Pilot,d09302021,QqVXN,rating,51.0,39.0,Dekb1n.jpg,3.897,92.0,-0.1316141389922314,1.6356637919476351
832,Pilot,d09302021,QqVXN,rating,52.0,9.0,Lassc1.jpg,5.802,88.0,0.19318012848649202,1.4749763952765618
833,Pilot,d09302021,QqVXN,rating,53.0,48.0,Picb1n.jpg,4.011,93.0,-0.1121776316470479,1.6758356411154036
834,Pilot,d09302021,QqVXN,rating,54.0,14.0,Kupkb1.jpg,3.066,80.0,-0.2732960477979108,1.1536016019344149
835,Pilot,d09302021,QqVXN,rating,55.0,3.0,Fogeg1.jpg,2.541,76.0,-0.3628062789928345,0.9929142052633414
836,Pilot,d09302021,QqVXN,rating,56.0,56.0,Luisc1.jpg,2.242,33.0,-0.41378448685432445,-0.7344753089506981
837,Pilot,d09302021,QqVXN,rating,57.0,23.0,Lewib1.jpg,4.089,72.0,-0.09887896872665917,0.8322268085922679
838,Pilot,d09302021,QqVXN,rating,58.0,4.0,Mackb1.jpg,2.625,34.0,-0.3484846420016467,-0.6943034597829297
839,Pilot,d09302021,QqVXN,rating,59.0,51.0,Gora1n.jpg,4.274,32.0,-0.06733726821035277,-0.7746471581184665
840,Pilot,d10012021,iisGS,rating,0.0,21.0,Lewb1n.jpg,3.192,70.0,-0.16235078857876387,1.5097881917981613
841,Pilot,d10012021,iisGS,rating,1.0,27.0,Vinb1n.jpg,3.8,39.0,0.11422326425365066,-0.43495283087814035
842,Pilot,d10012021,iisGS,rating,2.0,50.0,Gorke1.jpg,3.138,67.0,-0.18691493142901136,1.3215874476681966
843,Pilot,d10012021,iisGS,rating,3.0,24.0,Dekoa1.jpg,2.523,18.0,-0.46667322500127284,-1.752358039787893
844,Pilot,d10012021,iisGS,rating,4.0,19.0,Macc1n.jpg,2.473,23.0,-0.4894178017144649,-1.4386901329046187
845,Pilot,d10012021,iisGS,rating,5.0,16.0,Lewa1n.jpg,2.898,36.0,-0.2960888996523328,-0.6231535750081051
846,Pilot,d10012021,iisGS,rating,6.0,30.0,Lasse1.jpg,3.2,36.0,-0.15871165630465314,-0.6231535750081051
847,Pilot,d10012021,iisGS,rating,7.0,35.0,Wdeka1.jpg,5.538,43.0,0.9048247508042047,-0.1840185053715208
848,Pilot,d10012021,iisGS,rating,8.0,40.0,Krab1n.jpg,2.374,36.0,-0.5344520636065849,-0.6231535750081051
849,Pilot,d10012021,iisGS,rating,9.0,6.0,Wdekc1.jpg,3.203,58.0,-0.1573469817018618,0.7569852152783025
850,Pilot,d10012021,iisGS,rating,10.0,56.0,Luisc1.jpg,3.34,66.0,-0.0950268415077157,1.2588538662915416
851,Pilot,d10012021,iisGS,rating,11.0,58.0,Mackc1.jpg,2.69,30.0,-0.3907063387792116,-0.9995550632680344
852,Pilot,d10012021,iisGS,rating,12.0,14.0,Kupkb1.jpg,4.026,65.0,0.21702875099727847,1.1961202849148869
853,Pilot,d10012021,iisGS,rating,13.0,41.0,Vincb1.jpg,3.02,56.0,-0.24059213247214442,0.6315180525249928
854,Pilot,d10012021,iisGS,rating,14.0,10.0,Stera1.jpg,2.452,29.0,-0.49897052393400554,-1.0622886446446893
855,Pilot,d10012021,iisGS,rating,15.0,28.0,Krasa1.jpg,3.5,32.0,-0.022244196025501244,-0.8740879005147246
856,Pilot,d10012021,iisGS,rating,16.0,3.0,Fogeg1.jpg,2.391,68.0,-0.5267189075240998,1.3843210290448515
857,Pilot,d10012021,iisGS,rating,17.0,31.0,Maca1n.jpg,3.806,38.0,0.1169526134592338,-0.49768641225479526
858,Pilot,d10012021,iisGS,rating,18.0,25.0,Clifa1.jpg,3.701,62.0,0.06918900236153062,1.0079195407849222
859,Pilot,d10012021,iisGS,rating,19.0,2.0,Dekob1.jpg,2.495,38.0,-0.4794101879606603,-0.49768641225479526
860,Pilot,d10012021,iisGS,rating,20.0,45.0,Klia1n.jpg,2.605,58.0,-0.429372119191638,0.7569852152783025
861,Pilot,d10012021,iisGS,rating,21.0,17.0,Picab1.jpg,2.408,41.0,-0.5189857514416145,-0.3094856681248306
862,Pilot,d10012021,iisGS,rating,22.0,32.0,Macka1.jpg,2.561,39.0,-0.44938734669924696,-0.43495283087814035
863,Pilot,d10012021,iisGS,rating,23.0,20.0,Gorc1n.jpg,3.383,59.0,-0.07546650553437051,0.8197187966549575
864,Pilot,d10012021,iisGS,rating,24.0,48.0,Picb1n.jpg,4.247,61.0,0.3175597800695871,0.9451859594082672
865,Pilot,d10012021,iisGS,rating,25.0,8.0,Klina1.jpg,3.782,63.0,0.10603521663690163,1.070653122161577
866,Pilot,d10012021,iisGS,rating,26.0,1.0,Lewia1.jpg,2.478,42.0,-0.4871433440431456,-0.2467520867481757
867,Pilot,d10012021,iisGS,rating,27.0,7.0,Pica1n.jpg,3.008,31.0,-0.2460508308833105,-0.9368214818913795
868,Pilot,d10012021,iisGS,rating,28.0,0.0,Gorkc1.jpg,3.461,33.0,-0.039984965861791066,-0.8113543191380698
869,Pilot,d10012021,iisGS,rating,29.0,5.0,Kupb1n.jpg,3.934,56.0,0.17517872984500538,0.6315180525249928
870,Pilot,d10012021,iisGS,rating,30.0,9.0,Lassc1.jpg,3.902,76.0,0.16062220074856248,1.8861896800580906
871,Pilot,d10012021,iisGS,rating,31.0,59.0,Kraa1n.jpg,2.325,22.0,-0.5567417487855131,-1.5014237142812736
872,Pilot,d10012021,iisGS,rating,32.0,55.0,Lewic1.jpg,2.381,32.0,-0.5312678228667382,-0.8740879005147246
873,Pilot,d10012021,iisGS,rating,33.0,49.0,Hinda1.jpg,4.36,54.0,0.36896252344140124,0.506050889771683
874,Pilot,d10012021,iisGS,rating,34.0,11.0,Wdekb1.jpg,4.118,63.0,0.258878772149552,1.070653122161577
875,Pilot,d10012021,iisGS,rating,35.0,53.0,Gorka1.jpg,3.584,34.0,0.015966692852661345,-0.7486207377614148
876,Pilot,d10012021,iisGS,rating,36.0,37.0,Mondb1.jpg,3.356,35.0,-0.08774857695949426,-0.6858871563847599
877,Pilot,d10012021,iisGS,rating,37.0,57.0,Lewc1n.jpg,5.039,38.0,0.6778338752065483,-0.49768641225479526
878,Pilot,d10012021,iisGS,rating,38.0,36.0,Gorkf1.jpg,2.566,37.0,-0.44711288902792784,-0.5604199936314501
879,Pilot,d10012021,iisGS,rating,39.0,54.0,Kupka1.jpg,4.425,40.0,0.3985304731685506,-0.3722192495014855
880,Pilot,d10012021,iisGS,rating,40.0,52.0,Picaa1.jpg,2.933,63.0,-0.2801676959530986,1.070653122161577
881,Pilot,d10012021,iisGS,rating,41.0,15.0,Clia1n.jpg,3.206,67.0,-0.1559823070990702,1.3215874476681966
882,Pilot,d10012021,iisGS,rating,42.0,12.0,Kupkc1.jpg,2.95,34.0,-0.2724345398706131,-0.7486207377614148
883,Pilot,d10012021,iisGS,rating,43.0,44.0,Lassf1.jpg,2.143,33.0,-0.6395320080215321,-0.8113543191380698
884,Pilot,d10012021,iisGS,rating,44.0,43.0,Picac1.jpg,4.05,33.0,0.22794614781961064,-0.8113543191380698
885,Pilot,d10012021,iisGS,rating,45.0,51.0,Gora1n.jpg,5.278,56.0,0.786552951895606,0.6315180525249928
886,Pilot,d10012021,iisGS,rating,46.0,39.0,Dekb1n.jpg,3.423,35.0,-0.0572708441638169,-0.6858871563847599
887,Pilot,d10012021,iisGS,rating,47.0,38.0,Lasc1n.jpg,3.277,67.0,-0.12368500816633748,1.3215874476681966
888,Pilot,d10012021,iisGS,rating,48.0,29.0,Clifb1.jpg,3.036,58.0,-0.23331386792392297,0.7569852152783025
889,Pilot,d10012021,iisGS,rating,49.0,13.0,Picak1.jpg,2.814,33.0,-0.3342997885304954,-0.8113543191380698
890,Pilot,d10012021,iisGS,rating,50.0,34.0,Monb1n.jpg,2.987,35.0,-0.2556035531028511,-0.6858871563847599
891,Pilot,d10012021,iisGS,rating,51.0,23.0,Lewib1.jpg,3.738,66.0,0.08601998912929266,1.2588538662915416
892,Pilot,d10012021,iisGS,rating,52.0,26.0,Clib1n.jpg,19.113,38.0,7.079977328435831,-0.49768641225479526
893,Pilot,d10012021,iisGS,rating,53.0,18.0,Krasb1.jpg,5.636,61.0,0.949404121162061,0.9451859594082672
894,Pilot,d10012021,iisGS,rating,54.0,46.0,Deka1n.jpg,2.786,59.0,-0.34703675148988294,0.8197187966549575
895,Pilot,d10012021,iisGS,rating,55.0,4.0,Mackb1.jpg,2.712,34.0,-0.380698725025407,-0.7486207377614148
896,Pilot,d10012021,iisGS,rating,56.0,47.0,Kupkd1.jpg,2.943,26.0,-0.2756187806104601,-1.250489388774654
897,Pilot,d10012021,iisGS,rating,57.0,22.0,Macb1n.jpg,2.445,19.0,-0.5021547646738524,-1.689624458411238
898,Pilot,d10012021,iisGS,rating,58.0,33.0,Kupc1n.jpg,2.354,81.0,-0.5435498942918617,2.199857586941365
899,Pilot,d10012021,iisGS,rating,59.0,42.0,Picc1n.jpg,3.427,34.0,-0.05545127802676154,-0.7486207377614148
900,Pilot,d09302021,BGa6g,rating,0.0,13.0,Picak1.jpg,9.151,37.0,2.946876599823482,0.4759432825888047
901,Pilot,d09302021,BGa6g,rating,1.0,4.0,Mackb1.jpg,3.758,22.0,-0.7656606021219728,-0.2550276292370046
902,Pilot,d09302021,BGa6g,rating,2.0,41.0,Vincb1.jpg,4.977,39.0,0.07349809418277609,0.5734060708322459
903,Pilot,d09302021,BGa6g,rating,3.0,19.0,Macc1n.jpg,4.447,21.0,-0.2913535129062453,-0.3037590233587253
904,Pilot,d09302021,BGa6g,rating,4.0,6.0,Wdekc1.jpg,5.473,18.0,0.4149441264774069,-0.44995320572388714
905,Pilot,d09302021,BGa6g,rating,5.0,34.0,Monb1n.jpg,6.745,23.0,1.2905879834910579,-0.20629623511528403
906,Pilot,d09302021,BGa6g,rating,6.0,10.0,Stera1.jpg,3.133,3.0,-1.1959101387835545,-1.1809241175496965
907,Pilot,d09302021,BGa6g,rating,7.0,31.0,Maca1n.jpg,5.267,56.0,0.27313387919375,1.4018397709014965
908,Pilot,d09302021,BGa6g,rating,8.0,56.0,Luisc1.jpg,4.173,61.0,-0.4799749097786826,1.6454967415100996
909,Pilot,d09302021,BGa6g,rating,9.0,25.0,Clifa1.jpg,5.408,54.0,0.37019817466460275,1.3043769826580554
910,Pilot,d09302021,BGa6g,rating,10.0,35.0,Wdeka1.jpg,3.657,3.0,-0.8351889272464844,-1.1809241175496965
911,Pilot,d09302021,BGa6g,rating,11.0,48.0,Picb1n.jpg,3.077,40.0,-1.234460497268432,0.6221374649539666
912,Pilot,d09302021,BGa6g,rating,12.0,17.0,Picab1.jpg,3.634,18.0,-0.8510221101956307,-0.44995320572388714
913,Pilot,d09302021,BGa6g,rating,13.0,27.0,Vinb1n.jpg,4.087,6.0,-0.5391772460233165,-1.0347299351845347
914,Pilot,d09302021,BGa6g,rating,14.0,28.0,Krasa1.jpg,3.338,10.0,-1.0547882907585555,-0.8398043586976521
915,Pilot,d09302021,BGa6g,rating,15.0,3.0,Fogeg1.jpg,6.182,62.0,0.9030192008663054,1.6942281356318203
916,Pilot,d09302021,BGa6g,rating,16.0,55.0,Lewic1.jpg,5.703,38.0,0.5732759559688693,0.5246746767105254
917,Pilot,d09302021,BGa6g,rating,17.0,53.0,Gorka1.jpg,5.174,33.0,0.20911274813850664,0.2810177061019222
918,Pilot,d09302021,BGa6g,rating,18.0,2.0,Dekob1.jpg,3.081,3.0,-1.231706900233798,-1.1809241175496965
919,Pilot,d09302021,BGa6g,rating,19.0,14.0,Kupkb1.jpg,4.215,64.0,-0.4510621409150245,1.7916909238752616
920,Pilot,d09302021,BGa6g,rating,20.0,33.0,Kupc1n.jpg,5.036,53.0,0.1141136504436289,1.2556455885363347
921,Pilot,d09302021,BGa6g,rating,21.0,52.0,Picaa1.jpg,4.768,33.0,-0.07037735087685715,0.2810177061019222
922,Pilot,d09302021,BGa6g,rating,22.0,9.0,Lassc1.jpg,7.93,0.0,2.1063411050014165,-1.3271182999148583
923,Pilot,d09302021,BGa6g,rating,23.0,29.0,Clifb1.jpg,5.534,22.0,0.45693648125557723,-0.2550276292370046
924,Pilot,d09302021,BGa6g,rating,24.0,46.0,Deka1n.jpg,4.173,11.0,-0.4799749097786826,-0.7910729645759315
925,Pilot,d09302021,BGa6g,rating,25.0,50.0,Gorke1.jpg,7.924,4.0,2.1022107094494658,-1.1321927234279758
926,Pilot,d09302021,BGa6g,rating,26.0,22.0,Macb1n.jpg,4.237,46.0,-0.4359173572245367,0.9145258296842903
927,Pilot,d09302021,BGa6g,rating,27.0,30.0,Lasse1.jpg,4.225,12.0,-0.4441781483284393,-0.7423415704542109
928,Pilot,d09302021,BGa6g,rating,28.0,42.0,Picc1n.jpg,7.871,0.0,2.0657255487405637,-1.3271182999148583
929,Pilot,d09302021,BGa6g,rating,29.0,45.0,Klia1n.jpg,4.26,35.0,-0.42008417427539063,0.37848049434536346
930,Pilot,d09302021,BGa6g,rating,30.0,57.0,Lewc1n.jpg,6.497,8.0,1.1198649673437422,-0.9372671469410934
931,Pilot,d09302021,BGa6g,rating,31.0,47.0,Kupkd1.jpg,5.442,57.0,0.3936037494589927,1.4505711650232171
932,Pilot,d09302021,BGa6g,rating,32.0,12.0,Kupkc1.jpg,2.872,40.0,-1.375582345293431,0.6221374649539666
933,Pilot,d09302021,BGa6g,rating,33.0,21.0,Lewb1n.jpg,5.319,70.0,0.3089306406439933,2.0840792886055852
934,Pilot,d09302021,BGa6g,rating,34.0,38.0,Lasc1n.jpg,3.559,0.0,-0.9026520545950203,-1.3271182999148583
935,Pilot,d09302021,BGa6g,rating,35.0,15.0,Clia1n.jpg,6.286,24.0,0.9746127237667921,-0.1575648409935634
936,Pilot,d09302021,BGa6g,rating,36.0,23.0,Lewib1.jpg,6.333,31.0,1.0069674889237434,0.18355491785848096
937,Pilot,d09302021,BGa6g,rating,37.0,16.0,Lewa1n.jpg,6.255,11.0,0.9532723467483778,-0.7910729645759315
938,Pilot,d09302021,BGa6g,rating,38.0,26.0,Clib1n.jpg,6.201,44.0,0.916098786780817,0.8170630414408491
939,Pilot,d09302021,BGa6g,rating,39.0,7.0,Pica1n.jpg,2.903,38.0,-1.3542419682750164,0.5246746767105254
940,Pilot,d09302021,BGa6g,rating,40.0,8.0,Klina1.jpg,6.326,30.0,1.0021486941131332,0.13482352373676035
941,Pilot,d09302021,BGa6g,rating,41.0,32.0,Macka1.jpg,4.306,15.0,-0.38841780837709805,-0.596147388089049
942,Pilot,d09302021,BGa6g,rating,42.0,37.0,Mondb1.jpg,7.373,25.0,1.7229027179286152,-0.10883344687184278
943,Pilot,d09302021,BGa6g,rating,43.0,58.0,Mackc1.jpg,4.027,34.0,-0.580481201542828,0.32974910022364284
944,Pilot,d09302021,BGa6g,rating,44.0,44.0,Lassf1.jpg,5.796,9.0,0.6372970870241126,-0.8885357528193728
945,Pilot,d09302021,BGa6g,rating,45.0,20.0,Gorc1n.jpg,3.178,0.0,-1.1649321721439205,-1.3271182999148583
946,Pilot,d09302021,BGa6g,rating,46.0,24.0,Dekoa1.jpg,4.363,45.0,-0.3491790506335616,0.8657944355625697
947,Pilot,d09302021,BGa6g,rating,47.0,36.0,Gorkf1.jpg,5.379,26.0,0.35023459616350483,-0.06010205275012215
948,Pilot,d09302021,BGa6g,rating,48.0,54.0,Kupka1.jpg,5.443,56.0,0.39429214871765084,1.4018397709014965
949,Pilot,d09302021,BGa6g,rating,49.0,1.0,Lewia1.jpg,5.186,10.0,0.2173735392424087,-0.8398043586976521
950,Pilot,d09302021,BGa6g,rating,50.0,11.0,Wdekb1.jpg,3.231,0.0,-1.1284470114350185,-1.3271182999148583
951,Pilot,d09302021,BGa6g,rating,51.0,51.0,Gora1n.jpg,5.201,37.0,0.22769952812228644,0.4759432825888047
952,Pilot,d09302021,BGa6g,rating,52.0,49.0,Hinda1.jpg,2.965,58.0,-1.3115612142381876,1.4993025591449378
953,Pilot,d09302021,BGa6g,rating,53.0,18.0,Krasb1.jpg,3.367,14.0,-1.0348247122574583,-0.6448787822107697
954,Pilot,d09302021,BGa6g,rating,54.0,59.0,Kraa1n.jpg,3.246,0.0,-1.1181210225551406,-1.3271182999148583
955,Pilot,d09302021,BGa6g,rating,55.0,0.0,Gorkc1.jpg,3.9,1.0,-0.6679079073924615,-1.2783869057931376
956,Pilot,d09302021,BGa6g,rating,56.0,5.0,Kupb1n.jpg,3.297,67.0,-1.0830126603635553,1.9378851062404234
957,Pilot,d09302021,BGa6g,rating,57.0,43.0,Picac1.jpg,3.978,24.0,-0.614212765217096,-0.1575648409935634
958,Pilot,d09302021,BGa6g,rating,58.0,40.0,Krab1n.jpg,3.814,13.0,-0.7271102436370951,-0.6936101763324902
959,Pilot,d09302021,BGa6g,rating,59.0,39.0,Dekb1n.jpg,5.533,20.0,0.4562480819969191,-0.3524904174804459
960,Pilot,d09302021,wTZ07,rating,0.0,23.0,Lewib1.jpg,5.584,33.0,0.6695742270793607,-1.0672713393176305
961,Pilot,d09302021,wTZ07,rating,1.0,17.0,Picab1.jpg,4.33,43.0,-0.07133354463443307,-0.5470740983829608
